build	computer.platform	date	time	subject	values.blockcount	blockcode	values.trialcount	trialcode	response	list.trialsequence.currentindex	values.recall_firstcharlatency	values.recall_lastcharlatency	values.listbrecall_firstcharlatency	values.listbrecall_lastcharlatency	expressions.trial_recall_word_latency	expressions.listb_recall_word_latency	values.cuecondition	values.cuevalidity	values.flankercongruence	values.targetposition	values.targetdirection	values.locationcongruence	values.CT_ISI	parameters.target_duration	parameters.responsewindow	values.TC_ISI	parameters.min_validlatency	correct	values.correct	picture.flanker1.currentitem	picture.flanker2.currentitem	picture.target.currentitem	picture.flanker3.currentitem	picture.flanker4.currentitem	values.target_x	values.flanker1_x	values.cue1_x	values.length1	values.length2	values.length3	latency
5.0.5.0	mac	070318	12:07:49	1002	0	rey_trial1_pres_instruct	0	trial1_pres_instruct1	Ctrl+'B'	0	0	0	0	0	0	0	0	0	0	0	0	0	0	500	1700	0	0	1	0	rightarrow.jpg	rightarrow.jpg	rightarrow.jpg	rightarrow.jpg	rightarrow.jpg	0	0	0	0	0	0	21
5.0.5.0	mac	070318	12:07:49	1002	0	rey_trial1_pres_4a	0	rey_list_presentation_4a	Ctrl+'B'	0	0	0	0	0	0	0	0	0	0	0	0	0	0	500	1700	0	0	1	0	rightarrow.jpg	rightarrow.jpg	rightarrow.jpg	rightarrow.jpg	rightarrow.jpg	0	0	0	0	0	0	9
5.0.5.0	mac	070318	12:07:49	1002	0	rey_trial1_recall	0	trial1_recall_response1	Ctrl+'B'	0	0	0	0	0	0	0	0	0	0	0	0	0	0	500	1700	0	0	1	0	rightarrow.jpg	rightarrow.jpg	rightarrow.jpg	rightarrow.jpg	rightarrow.jpg	0	0	0	0	0	0	3
5.0.5.0	mac	070318	12:07:49	1002	0	rey_trial2_pres_instruct	0	trial2_pres_instruct1	Ctrl+'B'	0	0	0	0	0	0	0	0	0	0	0	0	0	0	500	1700	0	0	0	0	rightarrow.jpg	rightarrow.jpg	rightarrow.jpg	rightarrow.jpg	rightarrow.jpg	0	0	0	0	0	0	0
5.0.5.0	mac	070318	12:07:49	1002	0	rey_trial2_pres_4a	0	rey_list_presentation_4a	Ctrl+'B'	0	0	0	0	0	0	0	0	0	0	0	0	0	0	500	1700	0	0	1	0	rightarrow.jpg	rightarrow.jpg	rightarrow.jpg	rightarrow.jpg	rightarrow.jpg	0	0	0	0	0	0	8
5.0.5.0	mac	070318	12:07:49	1002	0	rey_trial2_recall	0	trial2_recall_response1	Ctrl+'B'	0	0	0	0	0	0	0	0	0	0	0	0	0	0	500	1700	0	0	1	0	rightarrow.jpg	rightarrow.jpg	rightarrow.jpg	rightarrow.jpg	rightarrow.jpg	0	0	0	0	0	0	4
5.0.5.0	mac	070318	12:07:49	1002	0	rey_trial3_pres_instruct	0	trial3_pres_instruct1	Ctrl+'B'	0	0	0	0	0	0	0	0	0	0	0	0	0	0	500	1700	0	0	0	0	rightarrow.jpg	rightarrow.jpg	rightarrow.jpg	rightarrow.jpg	rightarrow.jpg	0	0	0	0	0	0	0
5.0.5.0	mac	070318	12:07:49	1002	0	rey_trial3_pres_4a	0	rey_list_presentation_4a	Ctrl+'B'	0	0	0	0	0	0	0	0	0	0	0	0	0	0	500	1700	0	0	1	0	rightarrow.jpg	rightarrow.jpg	rightarrow.jpg	rightarrow.jpg	rightarrow.jpg	0	0	0	0	0	0	8
5.0.5.0	mac	070318	12:07:49	1002	0	rey_trial3_recall	0	trial3_recall_response1	Ctrl+'B'	0	0	0	0	0	0	0	0	0	0	0	0	0	0	500	1700	0	0	1	0	rightarrow.jpg	rightarrow.jpg	rightarrow.jpg	rightarrow.jpg	rightarrow.jpg	0	0	0	0	0	0	4
5.0.5.0	mac	070318	12:07:49	1002	0	rey_trial4_pres_instruct	0	trial4_pres_instruct1	Ctrl+'B'	0	0	0	0	0	0	0	0	0	0	0	0	0	0	500	1700	0	0	0	0	rightarrow.jpg	rightarrow.jpg	rightarrow.jpg	rightarrow.jpg	rightarrow.jpg	0	0	0	0	0	0	0
5.0.5.0	mac	070318	12:07:49	1002	0	rey_trial4_pres_4a	0	rey_list_presentation_4a	Ctrl+'B'	0	0	0	0	0	0	0	0	0	0	0	0	0	0	500	1700	0	0	1	0	rightarrow.jpg	rightarrow.jpg	rightarrow.jpg	rightarrow.jpg	rightarrow.jpg	0	0	0	0	0	0	9
5.0.5.0	mac	070318	12:07:49	1002	0	rey_trial4_recall	0	trial4_recall_response1	Ctrl+'B'	0	0	0	0	0	0	0	0	0	0	0	0	0	0	500	1700	0	0	1	0	rightarrow.jpg	rightarrow.jpg	rightarrow.jpg	rightarrow.jpg	rightarrow.jpg	0	0	0	0	0	0	4
5.0.5.0	mac	070318	12:07:49	1002	0	rey_trial5_pres_instruct	0	trial5_pres_instruct1	Ctrl+'B'	0	0	0	0	0	0	0	0	0	0	0	0	0	0	500	1700	0	0	0	0	rightarrow.jpg	rightarrow.jpg	rightarrow.jpg	rightarrow.jpg	rightarrow.jpg	0	0	0	0	0	0	0
5.0.5.0	mac	070318	12:07:49	1002	0	rey_trial5_pres_4a	0	rey_list_presentation_4a	Ctrl+'B'	0	0	0	0	0	0	0	0	0	0	0	0	0	0	500	1700	0	0	1	0	rightarrow.jpg	rightarrow.jpg	rightarrow.jpg	rightarrow.jpg	rightarrow.jpg	0	0	0	0	0	0	8
5.0.5.0	mac	070318	12:07:49	1002	0	rey_trial5_recall	0	trial5_recall_response1	Ctrl+'B'	0	0	0	0	0	0	0	0	0	0	0	0	0	0	500	1700	0	0	1	0	rightarrow.jpg	rightarrow.jpg	rightarrow.jpg	rightarrow.jpg	rightarrow.jpg	0	0	0	0	0	0	223
5.0.5.0	mac	070318	12:07:49	1002	0	rey_listb_pres_instruct	0	listb_pres_instruct1	Ctrl+'B'	0	0	0	0	0	0	0	0	0	0	0	0	0	0	500	1700	0	0	0	0	rightarrow.jpg	rightarrow.jpg	rightarrow.jpg	rightarrow.jpg	rightarrow.jpg	0	0	0	0	0	0	0
5.0.5.0	mac	070318	12:07:49	1002	0	rey_listb_pres_4b	0	rey_list_presentation_4b	Ctrl+'B'	0	0	0	0	0	0	0	0	0	0	0	0	0	0	500	1700	0	0	1	0	rightarrow.jpg	rightarrow.jpg	rightarrow.jpg	rightarrow.jpg	rightarrow.jpg	0	0	0	0	0	0	56
5.0.5.0	mac	070318	12:07:49	1002	0	rey_listb_recall	0	listb_recall_response1	Ctrl+'B'	0	0	0	0	0	0	0	0	0	0	0	0	0	0	500	1700	0	0	1	0	rightarrow.jpg	rightarrow.jpg	rightarrow.jpg	rightarrow.jpg	rightarrow.jpg	0	0	0	0	0	0	8
5.0.5.0	mac	070318	12:07:49	1002	0	rey_trial6_pres_instruct	0	trial6_pres_instruct2	Ctrl+'B'	0	0	0	0	0	0	0	0	0	0	0	0	0	0	500	1700	0	0	0	0	rightarrow.jpg	rightarrow.jpg	rightarrow.jpg	rightarrow.jpg	rightarrow.jpg	0	0	0	0	0	0	0
5.0.5.0	mac	070318	12:07:49	1002	0	rey_trial6_recall	0	trial6_recall_response1	Ctrl+'B'	0	0	0	0	0	0	0	0	0	0	0	0	0	0	500	1700	0	0	1	0	rightarrow.jpg	rightarrow.jpg	rightarrow.jpg	rightarrow.jpg	rightarrow.jpg	0	0	0	0	0	0	3
5.0.5.0	mac	070318	12:07:49	1002	0	ant_transition	0	ant_transition_page	Ctrl+'B'	0	0	0	0	0	0	0	0	0	0	0	0	0	0	500	1700	0	0	1	0	rightarrow.jpg	rightarrow.jpg	rightarrow.jpg	rightarrow.jpg	rightarrow.jpg	0	0	0	0	0	0	149
5.0.5.0	mac	070318	12:07:49	1002	0	intro	0	welcome	Ctrl+'B'	0	0	0	0	0	0	0	0	0	0	0	0	0	0	500	1700	0	0	1	0	rightarrow.jpg	rightarrow.jpg	rightarrow.jpg	rightarrow.jpg	rightarrow.jpg	0	0	0	0	0	0	313
5.0.5.0	mac	070318	12:07:49	1002	4	rey_trial7_pres_instruct	0	trial7_pres_instruct2	Ctrl+'B'	4	0	0	0	0	0	0	0	0	0	0	0	0	0	500	1700	0	0	0	0	rightarrow.jpg	rightarrow.jpg	rightarrow.jpg	rightarrow.jpg	rightarrow.jpg	0	0	0	0	0	0	0
5.0.5.0	mac	070318	12:07:49	1002	4	rey_trial7_recall	0	trial7_recall_response1	Ctrl+'B'	4	0	0	0	0	0	0	0	0	0	0	0	0	0	500	1700	0	0	1	0	rightarrow.jpg	rightarrow.jpg	rightarrow.jpg	rightarrow.jpg	rightarrow.jpg	0	0	0	0	0	0	364
5.0.5.0	mac	070318	12:07:49	1002	4	typing_test	0	typing_test_startpage	Ctrl+'B'	4	0	0	0	0	0	0	0	0	0	0	0	0	0	500	1700	0	0	1	0	rightarrow.jpg	rightarrow.jpg	rightarrow.jpg	rightarrow.jpg	rightarrow.jpg	0	0	0	0	0	0	195
5.0.5.0	mac	070318	12:07:49	1002	4	end_page	0	End	Ctrl+'B'	0	0	0	0	0	0	0	0	0	0	0	0	0	0	500	1700	0	0	1	0	rightarrow.jpg	rightarrow.jpg	rightarrow.jpg	rightarrow.jpg	rightarrow.jpg	0	0	0	0	0	0	21
