build,computer.platform,date,time,subject,blockcode,trialcode,latency,response,expressions.nr_targettrials_AX,expressions.nr_nontargettrials_AY,expressions.nr_nontargettrials_BX,expressions.nr_nontargettrials_BY,expressions.phase1trials,expressions.phase3trials,blocknum,trialnum,values.counttrials,values.trialtype,values.phase,values.cue,values.distractor1,values.distractor2,values.probe,stimulusitem1,correct5.0.6.0,win,12417,23:23:37,43,end_page,End1,3092,57,175,25,25,25,100,150,26,2,250,4,3,O,C,L,E,This is a pilot of a neurocognitive task that is assessing memory and attention.  This task will be used to help us better understand PTSD in War Veterans.,05.0.6.0,win,12417,23:23:37,43,end_page,End2,1817,57,175,25,25,25,100,150,26,3,250,4,3,O,C,L,E,This is a pilot of a neurocognitive task that is assessing memory and attention.  This task will be used to help us better understand PTSD in War Veterans.  Not all veterans are getting the care that works best for them.,05.0.6.0,win,12417,23:23:37,43,end_page,End3,2857,57,175,25,25,25,100,150,26,4,250,4,3,O,C,L,E,This is a pilot of a neurocognitive task that is assessing memory and attention.  This task will be used to help us better understand PTSD in War Veterans.  Not all veterans are getting the care that works best for them.  Our goal is to ensure veterans are getting the most effective and personalized treatment.,05.0.6.0,win,12417,23:23:37,43,end_page,End4,2344,57,175,25,25,25,100,150,26,5,250,4,3,O,C,L,E,This is a pilot of a neurocognitive task that is assessing memory and attention.  This task will be used to help us better understand PTSD in War Veterans.   Not all veterans are getting the care that works best for them.  Our goal is to ensure veterans are getting the most effective and personalized treatment.  Your participation in this task has helped us move towards reaching that goal!,05.0.6.0,win,12317,20:04:32,42,rey_trial1_pres_instruct,trial1_pres_instruct1,1000,0,175,25,25,25,100,150,2,1,0,0,0,0,0,0,0,Task 1,05.0.6.0,win,12317,20:04:32,42,rey_trial1_pres_instruct,trial1_pres_instruct2,219091,57,175,25,25,25,100,150,2,2,0,0,0,0,0,0,0,"This task may seem a bit difficult in the beginning, but usually it gets easier as we go along.",05.0.6.0,win,12317,20:04:32,42,rey_trial1_pres_instruct,trial1_pres_instruct3,2943,57,175,25,25,25,100,150,2,3,0,0,0,0,0,0,0,"This task may seem a bit difficult in the beginning, but usually it gets easier as we go along.  You are going to see words appear on the screen one by one.",05.0.6.0,win,12317,20:04:32,42,rey_trial1_pres_instruct,trial1_pres_instruct4,4658,57,175,25,25,25,100,150,2,4,0,0,0,0,0,0,0,"This task may seem a bit difficult in the beginning, but usually it gets easier as we go along.   You are going to see words appear on the screen one by one.  After all the words have finished appearing on the screen, you will be asked to type in as many of the words as you can remember.",05.0.6.0,win,12317,20:04:32,42,rey_trial1_pres_instruct,trial1_pres_instruct5,1842,57,175,25,25,25,100,150,2,5,0,0,0,0,0,0,0,You can type them in any order that comes to mind.,05.0.6.0,win,12317,20:04:32,42,rey_trial1_pres_instruct,trial1_pres_instruct6,2132,57,175,25,25,25,100,150,2,6,0,0,0,0,0,0,0,You can type them in any order that comes to mind.   Try not to repeat yourself by giving the same word more than once.,05.0.6.0,win,12317,20:04:32,42,rey_trial1_pres_instruct,trial1_pres_instruct7,2925,57,175,25,25,25,100,150,2,7,0,0,0,0,0,0,0,"You can type them in any order that comes to mind.   Try not to repeat yourself by giving the same word more than once.   Remember, the order does not matter and it is okay if you cannot remember some words.",05.0.6.0,win,12317,20:04:32,42,rey_trial1_pres_instruct,trial1_pres_instruct8,5229,57,175,25,25,25,100,150,2,8,0,0,0,0,0,0,0,"You can type them in any order that comes to mind.   Try not to repeat yourself by giving the same word more than once.   Remember, the order does not matter and it is okay if you cannot remember some words.   You are then going to do this task a few more times to see how many words you can eventually learn.",05.0.6.0,win,12317,20:04:32,42,rey_trial1_pres_instruct,trial1_pres_instruct9,1450,57,175,25,25,25,100,150,2,9,0,0,0,0,0,0,0,Press spacebar when you are ready to begin the task.,05.0.6.0,win,12317,20:04:32,42,rey_trial1_recall,trial1_recall_response1,7139,house,175,25,25,25,100,150,4,1,0,0,0,0,0,0,0,recallrect2_empty,05.0.6.0,win,12317,20:04:32,42,rey_trial1_recall,trial1_recall_response2,2172,river,175,25,25,25,100,150,4,2,0,0,0,0,0,0,0,recallrect1_full,05.0.6.0,win,12317,20:04:32,42,rey_trial1_recall,trial1_recall_response3,2215,hat,175,25,25,25,100,150,4,3,0,0,0,0,0,0,0,recallrect1_full,05.0.6.0,win,12317,20:04:32,42,rey_trial1_recall,trial1_recall_response4,5706,school,175,25,25,25,100,150,4,4,0,0,0,0,0,0,0,recallrect1_full,05.0.6.0,win,12317,20:04:32,42,rey_trial1_recall,trial1_recall_response5,1338,nose,175,25,25,25,100,150,4,5,0,0,0,0,0,0,0,recallrect1_full,05.0.6.0,win,12317,20:04:32,42,rey_trial1_recall,trial1_recall_response6,13236,school,175,25,25,25,100,150,4,6,0,0,0,0,0,0,0,recallrect1_full,05.0.6.0,win,12317,20:04:32,42,rey_trial1_recall,trial1_recall_response7,10815,farm,175,25,25,25,100,150,4,7,0,0,0,0,0,0,0,recallrect1_full,05.0.6.0,win,12317,20:04:32,42,rey_trial1_recall,trial1_recall_response8,17282,,175,25,25,25,100,150,4,8,0,0,0,0,0,0,0,recallrect1_full,05.0.6.0,win,12317,20:04:32,42,rey_trial2_pres_instruct,trial2_pres_instruct1,3241,57,175,25,25,25,100,150,5,1,0,0,0,0,0,0,0,"Good, that was a good beginning.",05.0.6.0,win,12317,20:04:32,42,rey_trial2_pres_instruct,trial2_pres_instruct2,527,57,175,25,25,25,100,150,5,2,0,0,0,0,0,0,0,"Good, that was a good beginning.   Now, you will see the same words you saw before.",05.0.6.0,win,12317,20:04:32,42,rey_trial2_pres_instruct,trial2_pres_instruct3,3500,57,175,25,25,25,100,150,5,3,0,0,0,0,0,0,0,"Good, that was a good beginning.   Now, you will see the same words you saw before.   At the end, you will be asked to type in as many words as you can remember including all the words you remembered on the first trial.",05.0.6.0,win,12317,20:04:32,42,rey_trial2_recall,trial2_recall_response1,1658,river,175,25,25,25,100,150,7,1,0,0,0,0,0,0,0,recallrect2_empty,05.0.6.0,win,12317,20:04:32,42,rey_trial2_recall,trial2_recall_response2,1341,house,175,25,25,25,100,150,7,2,0,0,0,0,0,0,0,recallrect1_full,05.0.6.0,win,12317,20:04:32,42,rey_trial2_recall,trial2_recall_response3,1108,farm,175,25,25,25,100,150,7,3,0,0,0,0,0,0,0,recallrect1_full,05.0.6.0,win,12317,20:04:32,42,rey_trial2_recall,trial2_recall_response4,947,nose,175,25,25,25,100,150,7,4,0,0,0,0,0,0,0,recallrect1_full,05.0.6.0,win,12317,20:04:32,42,rey_trial2_recall,trial2_recall_response5,3649,coffee,175,25,25,25,100,150,7,5,0,0,0,0,0,0,0,recallrect1_full,05.0.6.0,win,12317,20:04:32,42,rey_trial2_recall,trial2_recall_response6,1460,turkey,175,25,25,25,100,150,7,6,0,0,0,0,0,0,0,recallrect1_full,05.0.6.0,win,12317,20:04:32,42,rey_trial2_recall,trial2_recall_response7,1727,bell,175,25,25,25,100,150,7,7,0,0,0,0,0,0,0,recallrect1_full,05.0.6.0,win,12317,20:04:32,42,rey_trial2_recall,trial2_recall_response8,3980,drum,175,25,25,25,100,150,7,8,0,0,0,0,0,0,0,recallrect1_full,05.0.6.0,win,12317,20:04:32,42,rey_trial2_recall,trial2_recall_response9,6016,school,175,25,25,25,100,150,7,9,0,0,0,0,0,0,0,recallrect1_full,05.0.6.0,win,12317,20:04:32,42,rey_trial2_recall,trial2_recall_response10,7363,fist,175,25,25,25,100,150,7,10,0,0,0,0,0,0,0,recallrect1_full,05.0.6.0,win,12317,20:04:32,42,rey_trial2_recall,trial2_recall_response11,9126,,175,25,25,25,100,150,7,11,0,0,0,0,0,0,0,recallrect1_full,05.0.6.0,win,12317,20:04:32,42,rey_trial3_pres_instruct,trial3_pres_instruct1,1182,57,175,25,25,25,100,150,8,1,0,0,0,0,0,0,0,"Good, that was a good beginning.",05.0.6.0,win,12317,20:04:32,42,rey_trial3_pres_instruct,trial3_pres_instruct2,1458,57,175,25,25,25,100,150,8,2,0,0,0,0,0,0,0,"Good, that was a good beginning.   Now, you will see the same words you saw before.",05.0.6.0,win,12317,20:04:32,42,rey_trial3_pres_instruct,trial3_pres_instruct3,4546,57,175,25,25,25,100,150,8,3,0,0,0,0,0,0,0,"Good, that was a good beginning.   Now, you will see the same words you saw before.   At the end, you will be asked to type in as many words as you can remember including all the words you remembered on the first trial.",05.0.6.0,win,12317,20:04:32,42,rey_trial3_recall,trial3_recall_response1,3257,river,175,25,25,25,100,150,10,1,0,0,0,0,0,0,0,recallrect2_empty,05.0.6.0,win,12317,20:04:32,42,rey_trial3_recall,trial3_recall_response2,1040,house,175,25,25,25,100,150,10,2,0,0,0,0,0,0,0,recallrect1_full,05.0.6.0,win,12317,20:04:32,42,rey_trial3_recall,trial3_recall_response3,1059,school,175,25,25,25,100,150,10,3,0,0,0,0,0,0,0,recallrect1_full,05.0.6.0,win,12317,20:04:32,42,rey_trial3_recall,trial3_recall_response4,916,nose,175,25,25,25,100,150,10,4,0,0,0,0,0,0,0,recallrect1_full,05.0.6.0,win,12317,20:04:32,42,rey_trial3_recall,trial3_recall_response5,2868,farmer,175,25,25,25,100,150,10,5,0,0,0,0,0,0,0,recallrect1_full,05.0.6.0,win,12317,20:04:32,42,rey_trial3_recall,trial3_recall_response6,2497,drum,175,25,25,25,100,150,10,6,0,0,0,0,0,0,0,recallrect1_full,05.0.6.0,win,12317,20:04:32,42,rey_trial3_recall,trial3_recall_response7,1620,bell,175,25,25,25,100,150,10,7,0,0,0,0,0,0,0,recallrect1_full,05.0.6.0,win,12317,20:04:32,42,rey_trial3_recall,trial3_recall_response8,1979,turkey,175,25,25,25,100,150,10,8,0,0,0,0,0,0,0,recallrect1_full,05.0.6.0,win,12317,20:04:32,42,rey_trial3_recall,trial3_recall_response9,10153,coffee,175,25,25,25,100,150,10,9,0,0,0,0,0,0,0,recallrect1_full,05.0.6.0,win,12317,20:04:32,42,rey_trial3_recall,trial3_recall_response10,6565,garden,175,25,25,25,100,150,10,10,0,0,0,0,0,0,0,recallrect1_full,05.0.6.0,win,12317,20:04:32,42,rey_trial3_recall,trial3_recall_response11,17365,nose,175,25,25,25,100,150,10,11,0,0,0,0,0,0,0,recallrect1_full,05.0.6.0,win,12317,20:04:32,42,rey_trial3_recall,trial3_recall_response12,4419,,175,25,25,25,100,150,10,12,0,0,0,0,0,0,0,recallrect1_full,05.0.6.0,win,12317,20:04:32,42,rey_trial4_pres_instruct,trial4_pres_instruct1,1027,57,175,25,25,25,100,150,11,1,0,0,0,0,0,0,0,"Good, that was a good beginning.",05.0.6.0,win,12317,20:04:32,42,rey_trial4_pres_instruct,trial4_pres_instruct2,1085,57,175,25,25,25,100,150,11,2,0,0,0,0,0,0,0,"Good, that was a good beginning.   Now, you will see the same words you saw before.",05.0.6.0,win,12317,20:04:32,42,rey_trial4_pres_instruct,trial4_pres_instruct3,1181,57,175,25,25,25,100,150,11,3,0,0,0,0,0,0,0,"Good, that was a good beginning.   Now, you will see the same words you saw before.   At the end, you will be asked to type in as many words as you can remember including all the words you remembered on the first trial.",05.0.6.0,win,12317,20:04:32,42,rey_trial4_recall,trial4_recall_response1,1297,river,175,25,25,25,100,150,13,1,0,0,0,0,0,0,0,recallrect2_empty,05.0.6.0,win,12317,20:04:32,42,rey_trial4_recall,trial4_recall_response2,888,house,175,25,25,25,100,150,13,2,0,0,0,0,0,0,0,recallrect1_full,05.0.6.0,win,12317,20:04:32,42,rey_trial4_recall,trial4_recall_response3,1070,farmer,175,25,25,25,100,150,13,3,0,0,0,0,0,0,0,recallrect1_full,05.0.6.0,win,12317,20:04:32,42,rey_trial4_recall,trial4_recall_response4,1956,turkey,175,25,25,25,100,150,13,4,0,0,0,0,0,0,0,recallrect1_full,05.0.6.0,win,12317,20:04:32,42,rey_trial4_recall,trial4_recall_response5,2294,garden,175,25,25,25,100,150,13,5,0,0,0,0,0,0,0,recallrect1_full,05.0.6.0,win,12317,20:04:32,42,rey_trial4_recall,trial4_recall_response6,2107,drum,175,25,25,25,100,150,13,6,0,0,0,0,0,0,0,recallrect1_full,05.0.6.0,win,12317,20:04:32,42,rey_trial4_recall,trial4_recall_response7,875,bell,175,25,25,25,100,150,13,7,0,0,0,0,0,0,0,recallrect1_full,05.0.6.0,win,12317,20:04:32,42,rey_trial4_recall,trial4_recall_response8,1807,school,175,25,25,25,100,150,13,8,0,0,0,0,0,0,0,recallrect1_full,05.0.6.0,win,12317,20:04:32,42,rey_trial4_recall,trial4_recall_response9,3748,coffee,175,25,25,25,100,150,13,9,0,0,0,0,0,0,0,recallrect1_full,05.0.6.0,win,12317,20:04:32,42,rey_trial4_recall,trial4_recall_response10,11795,parent,175,25,25,25,100,150,13,10,0,0,0,0,0,0,0,recallrect1_full,05.0.6.0,win,12317,20:04:32,42,rey_trial4_recall,trial4_recall_response11,13857,curtain,175,25,25,25,100,150,13,11,0,0,0,0,0,0,0,recallrect1_full,05.0.6.0,win,12317,20:04:32,42,rey_trial4_recall,trial4_recall_response12,13460,nose,175,25,25,25,100,150,13,12,0,0,0,0,0,0,0,recallrect1_full,05.0.6.0,win,12317,20:04:32,42,rey_trial4_recall,trial4_recall_response13,12446,,175,25,25,25,100,150,13,13,0,0,0,0,0,0,0,recallrect1_full,05.0.6.0,win,12317,20:04:32,42,rey_trial5_pres_instruct,trial5_pres_instruct1,395,57,175,25,25,25,100,150,14,1,0,0,0,0,0,0,0,"Good, that was a good beginning.",05.0.6.0,win,12317,20:04:32,42,rey_trial5_pres_instruct,trial5_pres_instruct2,468,57,175,25,25,25,100,150,14,2,0,0,0,0,0,0,0,"Good, that was a good beginning.   Now, you will see the same words you saw before.",05.0.6.0,win,12317,20:04:32,42,rey_trial5_pres_instruct,trial5_pres_instruct3,23362,57,175,25,25,25,100,150,14,3,0,0,0,0,0,0,0,"Good, that was a good beginning.   Now, you will see the same words you saw before.   At the end, you will be asked to type in as many words as you can remember including all the words you remembered on the first trial.",05.0.6.0,win,12317,20:04:32,42,rey_trial5_recall,trial5_recall_response1,5989,bell,175,25,25,25,100,150,16,1,0,0,0,0,0,0,0,recallrect2_empty,05.0.6.0,win,12317,20:04:32,42,rey_trial5_recall,trial5_recall_response2,978,house,175,25,25,25,100,150,16,2,0,0,0,0,0,0,0,recallrect1_full,05.0.6.0,win,12317,20:04:32,42,rey_trial5_recall,trial5_recall_response3,1852,farmer,175,25,25,25,100,150,16,3,0,0,0,0,0,0,0,recallrect1_full,05.0.6.0,win,12317,20:04:32,42,rey_trial5_recall,trial5_recall_response4,1889,school,175,25,25,25,100,150,16,4,0,0,0,0,0,0,0,recallrect1_full,05.0.6.0,win,12317,20:04:32,42,rey_trial5_recall,trial5_recall_response5,2018,nose,175,25,25,25,100,150,16,5,0,0,0,0,0,0,0,recallrect1_full,05.0.6.0,win,12317,20:04:32,42,rey_trial5_recall,trial5_recall_response6,2381,drum,175,25,25,25,100,150,16,6,0,0,0,0,0,0,0,recallrect1_full,05.0.6.0,win,12317,20:04:32,42,rey_trial5_recall,trial5_recall_response7,1605,curtain,175,25,25,25,100,150,16,7,0,0,0,0,0,0,0,recallrect1_full,05.0.6.0,win,12317,20:04:32,42,rey_trial5_recall,trial5_recall_response8,1088,coffee,175,25,25,25,100,150,16,8,0,0,0,0,0,0,0,recallrect1_full,05.0.6.0,win,12317,20:04:32,42,rey_trial5_recall,trial5_recall_response9,8395,garden,175,25,25,25,100,150,16,9,0,0,0,0,0,0,0,recallrect1_full,05.0.6.0,win,12317,20:04:32,42,rey_trial5_recall,trial5_recall_response10,8851,parent,175,25,25,25,100,150,16,10,0,0,0,0,0,0,0,recallrect1_full,05.0.6.0,win,12317,20:04:32,42,rey_trial5_recall,trial5_recall_response11,1524,moon,175,25,25,25,100,150,16,11,0,0,0,0,0,0,0,recallrect1_full,05.0.6.0,win,12317,20:04:32,42,rey_trial5_recall,trial5_recall_response12,12988,hat,175,25,25,25,100,150,16,12,0,0,0,0,0,0,0,recallrect1_full,05.0.6.0,win,12317,20:04:32,42,rey_trial5_recall,trial5_recall_response13,5528,turkey,175,25,25,25,100,150,16,13,0,0,0,0,0,0,0,recallrect1_full,05.0.6.0,win,12317,20:04:32,42,rey_trial5_recall,trial5_recall_response14,1385,color,175,25,25,25,100,150,16,14,0,0,0,0,0,0,0,recallrect1_full,05.0.6.0,win,12317,20:04:32,42,rey_trial5_recall,trial5_recall_response15,7260,,175,25,25,25,100,150,16,15,0,0,0,0,0,0,0,recallrect1_full,05.0.6.0,win,12317,20:04:32,42,rey_trial6_pres_instruct,trial6_pres_instruct1,2208,57,175,25,25,25,100,150,17,1,0,0,0,0,0,0,0,Now you are going to see a different list of words appear on the screen one by one.,05.0.6.0,win,12317,20:04:32,42,rey_trial6_pres_instruct,trial6_pres_instruct2,13114,57,175,25,25,25,100,150,17,2,0,0,0,0,0,0,0,"Now you are going to see a different list of words appear on the screen one by one.    Once again, after the words have finished appearing on the screen you will be asked to type in as many of the words as you can remember, in any order that comes to mind.",05.0.6.0,win,12317,20:04:32,42,rey_trial6_recall,trial6_recall_response1,6166,bird,175,25,25,25,100,150,19,1,0,0,0,0,0,0,0,recallrect2_empty,05.0.6.0,win,12317,20:04:32,42,rey_trial6_recall,trial6_recall_response2,6760,shot,175,25,25,25,100,150,19,2,0,0,0,0,0,0,0,recallrect1_full,05.0.6.0,win,12317,20:04:32,42,rey_trial6_recall,trial6_recall_response3,5128,towel,175,25,25,25,100,150,19,3,0,0,0,0,0,0,0,recallrect1_full,05.0.6.0,win,12317,20:04:32,42,rey_trial6_recall,trial6_recall_response4,1349,glasses,175,25,25,25,100,150,19,4,0,0,0,0,0,0,0,recallrect1_full,05.0.6.0,win,12317,20:04:32,42,rey_trial6_recall,trial6_recall_response5,5270,lamb,175,25,25,25,100,150,19,5,0,0,0,0,0,0,0,recallrect1_full,05.0.6.0,win,12317,20:04:32,42,rey_trial6_recall,trial6_recall_response6,4418,church,175,25,25,25,100,150,19,6,0,0,0,0,0,0,0,recallrect1_full,05.0.6.0,win,12317,20:04:32,42,rey_trial6_recall,trial6_recall_response7,2826,fish,175,25,25,25,100,150,19,7,0,0,0,0,0,0,0,recallrect1_full,05.0.6.0,win,12317,20:04:32,42,rey_trial6_recall,trial6_recall_response8,12001,mountain,175,25,25,25,100,150,19,8,0,0,0,0,0,0,0,recallrect1_full,05.0.6.0,win,12317,20:04:32,42,rey_trial6_recall,trial6_recall_response9,88,,175,25,25,25,100,150,19,9,0,0,0,0,0,0,0,recallrect1_full,05.0.6.0,win,12317,20:04:32,42,rey_trial7_pres_instruct,trial7_pres_instruct2,2058,57,175,25,25,25,100,150,20,1,0,0,0,0,0,0,0,Remember the first list which you practiced learning multiple times?,05.0.6.0,win,12317,20:04:32,42,rey_trial7_pres_instruct,trial7_pres_instruct3,1608,57,175,25,25,25,100,150,20,2,0,0,0,0,0,0,0,Remember the first list which you practiced learning multiple times?   Please type in as many of those words as you can remember in any order that comes to mind.,05.0.6.0,win,12317,20:04:32,42,rey_trial7_recall,trial7_recall_response1,2367,garden,175,25,25,25,100,150,21,1,0,0,0,0,0,0,0,recallrect2_empty,05.0.6.0,win,12317,20:04:32,42,rey_trial7_recall,trial7_recall_response2,1037,coffee,175,25,25,25,100,150,21,2,0,0,0,0,0,0,0,recallrect1_full,05.0.6.0,win,12317,20:04:32,42,rey_trial7_recall,trial7_recall_response3,1213,curtain,175,25,25,25,100,150,21,3,0,0,0,0,0,0,0,recallrect1_full,05.0.6.0,win,12317,20:04:32,42,rey_trial7_recall,trial7_recall_response4,2116,river,175,25,25,25,100,150,21,4,0,0,0,0,0,0,0,recallrect1_full,05.0.6.0,win,12317,20:04:32,42,rey_trial7_recall,trial7_recall_response5,3352,drum,175,25,25,25,100,150,21,5,0,0,0,0,0,0,0,recallrect1_full,05.0.6.0,win,12317,20:04:32,42,rey_trial7_recall,trial7_recall_response6,887,bell,175,25,25,25,100,150,21,6,0,0,0,0,0,0,0,recallrect1_full,05.0.6.0,win,12317,20:04:32,42,rey_trial7_recall,trial7_recall_response7,1008,moon,175,25,25,25,100,150,21,7,0,0,0,0,0,0,0,recallrect1_full,05.0.6.0,win,12317,20:04:32,42,rey_trial7_recall,trial7_recall_response8,1135,parent,175,25,25,25,100,150,21,8,0,0,0,0,0,0,0,recallrect1_full,05.0.6.0,win,12317,20:04:32,42,rey_trial7_recall,trial7_recall_response9,988,color,175,25,25,25,100,150,21,9,0,0,0,0,0,0,0,recallrect1_full,05.0.6.0,win,12317,20:04:32,42,rey_trial7_recall,trial7_recall_response10,3896,school,175,25,25,25,100,150,21,10,0,0,0,0,0,0,0,recallrect1_full,05.0.6.0,win,12317,20:04:32,42,rey_trial7_recall,trial7_recall_response11,1037,house,175,25,25,25,100,150,21,11,0,0,0,0,0,0,0,recallrect1_full,05.0.6.0,win,12317,20:04:32,42,rey_trial7_recall,trial7_recall_response12,1615,nose,175,25,25,25,100,150,21,12,0,0,0,0,0,0,0,recallrect1_full,05.0.6.0,win,12317,20:04:32,42,rey_trial7_recall,trial7_recall_response13,3552,parent,175,25,25,25,100,150,21,13,0,0,0,0,0,0,0,recallrect1_full,05.0.6.0,win,12317,20:04:32,42,rey_trial7_recall,trial7_recall_response14,10567,turkey,175,25,25,25,100,150,21,14,0,0,0,0,0,0,0,recallrect1_full,05.0.6.0,win,12317,20:04:32,42,rey_trial7_recall,trial7_recall_response15,5756,,175,25,25,25,100,150,21,15,0,0,0,0,0,0,0,recallrect1_full,05.0.6.0,win,12317,20:04:32,42,axcpt,task2_instruct2,1500,0,175,25,25,25,100,150,22,1,0,0,0,0,0,0,0,task2_instruct2.png,05.0.6.0,win,12317,20:04:32,42,axcpt,task2_instruct3,4618,57,175,25,25,25,100,150,22,2,0,0,0,0,0,0,0,task2_instruct3.png,05.0.6.0,win,12317,20:04:32,42,axcpt,task2_instruct4,500,0,175,25,25,25,100,150,22,3,0,0,0,0,0,0,0,task2_instruct4.png,05.0.6.0,win,12317,20:04:32,42,axcpt,task2_instruct5,500,0,175,25,25,25,100,150,22,4,0,0,0,0,0,0,0,task2_instruct5.png,05.0.6.0,win,12317,20:04:32,42,axcpt,task2_instruct6,500,0,175,25,25,25,100,150,22,5,0,0,0,0,0,0,0,task2_instruct6.png,05.0.6.0,win,12317,20:04:32,42,axcpt,task2_instruct7,500,0,175,25,25,25,100,150,22,6,0,0,0,0,0,0,0,task2_instruct7.png,05.0.6.0,win,12317,20:04:32,42,axcpt,task2_instruct8,500,0,175,25,25,25,100,150,22,7,0,0,0,0,0,0,0,task2_instruct8.png,05.0.6.0,win,12317,20:04:32,42,axcpt,task2_instruct9,500,0,175,25,25,25,100,150,22,8,0,0,0,0,0,0,0,task2_instruct9.png,05.0.6.0,win,12317,20:04:32,42,axcpt,task2_instruct10,500,0,175,25,25,25,100,150,22,9,0,0,0,0,0,0,0,task2_instruct10.png,05.0.6.0,win,12317,20:04:32,42,axcpt,task2_instruct11,1381,57,175,25,25,25,100,150,22,10,0,0,0,0,0,0,0,task2_instruct11.png,05.0.6.0,win,12317,20:04:32,42,axcpt,task2_instruct12,5351,57,175,25,25,25,100,150,22,11,0,0,0,0,0,0,0,task2_instruct12.png,05.0.6.0,win,12317,20:04:32,42,axcpt,task2_instruct13,9417,57,175,25,25,25,100,150,22,12,0,0,0,0,0,0,0,task2_instruct13.png,05.0.6.0,win,12317,20:04:32,42,axcpt,task2_instruct14,13229,57,175,25,25,25,100,150,22,13,0,0,0,0,0,0,0,task2_instruct14.png,05.0.6.0,win,12317,20:04:32,42,axcpt,task2_instruct15,3797,57,175,25,25,25,100,150,22,14,0,0,0,0,0,0,0,task2_instruct15.png,05.0.6.0,win,12317,20:04:32,42,axcpt,task2_instruct16,5017,57,175,25,25,25,100,150,22,15,0,0,0,0,0,0,0,task2_instruct16.png,05.0.6.0,win,12317,20:04:32,42,axcpt,task2_instruct17,5231,57,175,25,25,25,100,150,22,16,0,0,0,0,0,0,0,task2_instruct17.png,05.0.6.0,win,12317,20:04:32,42,axcpt,task2_instruct18,6377,57,175,25,25,25,100,150,22,17,0,0,0,0,0,0,0,task2_instruct18.png,05.0.6.0,win,12317,20:04:32,42,axcpt,task2_instruct19,7683,57,175,25,25,25,100,150,22,18,0,0,0,0,0,0,0,task2_instruct19.png,05.0.6.0,win,12317,20:04:32,42,axcpt,trialselector,0,0,175,25,25,25,100,150,22,20,0,3,0,0,0,0,0,0,05.0.6.0,win,12317,20:04:32,42,axcpt,BX,1200,0,175,25,25,25,100,150,22,21,1,3,1,U,C,R,X,U,05.0.6.0,win,12317,20:04:32,42,axcpt,ISI_probe,0,0,175,25,25,25,100,150,22,22,1,3,1,U,C,R,X,0,05.0.6.0,win,12317,20:04:32,42,axcpt,trialselector,0,0,175,25,25,25,100,150,22,23,1,1,1,U,C,R,X,0,05.0.6.0,win,12317,20:04:32,42,axcpt,AX,1022,2,175,25,25,25,100,150,22,24,2,1,1,A,J,M,X,A,15.0.6.0,win,12317,20:04:32,42,axcpt,ISI_probe,178,0,175,25,25,25,100,150,22,25,2,1,1,A,J,M,X,0,05.0.6.0,win,12317,20:04:32,42,axcpt,trialselector,0,0,175,25,25,25,100,150,22,26,2,1,1,A,J,M,X,0,05.0.6.0,win,12317,20:04:32,42,axcpt,AX,504,2,175,25,25,25,100,150,22,27,3,1,1,A,Q,C,X,A,15.0.6.0,win,12317,20:04:32,42,axcpt,ISI_probe,300,0,175,25,25,25,100,150,22,28,3,1,1,A,Q,C,X,0,05.0.6.0,win,12317,20:04:32,42,axcpt,trialselector,0,0,175,25,25,25,100,150,22,29,3,1,1,A,Q,C,X,0,05.0.6.0,win,12317,20:04:32,42,axcpt,AX,529,2,175,25,25,25,100,150,22,30,4,1,1,A,O,H,X,A,15.0.6.0,win,12317,20:04:32,42,axcpt,ISI_probe,300,0,175,25,25,25,100,150,22,31,4,1,1,A,O,H,X,0,05.0.6.0,win,12317,20:04:32,42,axcpt,trialselector,0,0,175,25,25,25,100,150,22,32,4,2,1,A,O,H,X,0,05.0.6.0,win,12317,20:04:32,42,axcpt,AY,997,3,175,25,25,25,100,150,22,33,5,2,1,A,C,L,Q,A,15.0.6.0,win,12317,20:04:32,42,axcpt,ISI_probe,203,0,175,25,25,25,100,150,22,34,5,2,1,A,C,L,Q,0,05.0.6.0,win,12317,20:04:32,42,axcpt,trialselector,0,0,175,25,25,25,100,150,22,35,5,1,1,A,C,L,Q,0,05.0.6.0,win,12317,20:04:32,42,axcpt,AX,546,2,175,25,25,25,100,150,22,36,6,1,1,A,V,D,X,A,15.0.6.0,win,12317,20:04:32,42,axcpt,ISI_probe,300,0,175,25,25,25,100,150,22,37,6,1,1,A,V,D,X,0,05.0.6.0,win,12317,20:04:32,42,axcpt,trialselector,0,0,175,25,25,25,100,150,22,38,6,4,1,A,V,D,X,0,05.0.6.0,win,12317,20:04:32,42,axcpt,BY,889,3,175,25,25,25,100,150,22,39,7,4,1,I,T,S,U,I,15.0.6.0,win,12317,20:04:32,42,axcpt,ISI_probe,300,0,175,25,25,25,100,150,22,40,7,4,1,I,T,S,U,0,05.0.6.0,win,12317,20:04:32,42,axcpt,trialselector,0,0,175,25,25,25,100,150,22,41,7,3,1,I,T,S,U,0,05.0.6.0,win,12317,20:04:32,42,axcpt,BX,862,2,175,25,25,25,100,150,22,42,8,3,1,Z,J,P,X,Z,05.0.6.0,win,12317,20:04:32,42,axcpt,ISI_probe,300,0,175,25,25,25,100,150,22,43,8,3,1,Z,J,P,X,0,05.0.6.0,win,12317,20:04:32,42,axcpt,trialselector,0,0,175,25,25,25,100,150,22,44,8,1,1,Z,J,P,X,0,05.0.6.0,win,12317,20:04:32,42,axcpt,AX,629,2,175,25,25,25,100,150,22,45,9,1,1,A,T,O,X,A,15.0.6.0,win,12317,20:04:32,42,axcpt,ISI_probe,300,0,175,25,25,25,100,150,22,46,9,1,1,A,T,O,X,0,05.0.6.0,win,12317,20:04:32,42,axcpt,trialselector,0,0,175,25,25,25,100,150,22,47,9,1,1,A,T,O,X,0,05.0.6.0,win,12317,20:04:32,42,axcpt,AX,587,2,175,25,25,25,100,150,22,48,10,1,1,A,N,E,X,A,15.0.6.0,win,12317,20:04:32,42,axcpt,ISI_probe,300,0,175,25,25,25,100,150,22,49,10,1,1,A,N,E,X,0,05.0.6.0,win,12317,20:04:32,42,axcpt,trialselector,0,0,175,25,25,25,100,150,22,50,10,1,1,A,N,E,X,0,05.0.6.0,win,12317,20:04:32,42,axcpt,AX,517,2,175,25,25,25,100,150,22,51,11,1,1,A,N,G,X,A,15.0.6.0,win,12317,20:04:32,42,axcpt,ISI_probe,300,0,175,25,25,25,100,150,22,52,11,1,1,A,N,G,X,0,05.0.6.0,win,12317,20:04:32,42,axcpt,trialselector,0,0,175,25,25,25,100,150,22,53,11,1,1,A,N,G,X,0,05.0.6.0,win,12317,20:04:32,42,axcpt,AX,511,2,175,25,25,25,100,150,22,54,12,1,1,A,N,C,X,A,15.0.6.0,win,12317,20:04:32,42,axcpt,ISI_probe,300,0,175,25,25,25,100,150,22,55,12,1,1,A,N,C,X,0,05.0.6.0,win,12317,20:04:32,42,axcpt,trialselector,0,0,175,25,25,25,100,150,22,56,12,1,1,A,N,C,X,0,05.0.6.0,win,12317,20:04:32,42,axcpt,AX,695,2,175,25,25,25,100,150,22,57,13,1,1,A,V,R,X,A,15.0.6.0,win,12317,20:04:32,42,axcpt,ISI_probe,300,0,175,25,25,25,100,150,22,58,13,1,1,A,V,R,X,0,05.0.6.0,win,12317,20:04:32,42,axcpt,trialselector,0,0,175,25,25,25,100,150,22,59,13,1,1,A,V,R,X,0,05.0.6.0,win,12317,20:04:32,42,axcpt,AX,583,2,175,25,25,25,100,150,22,60,14,1,1,A,Z,L,X,A,15.0.6.0,win,12317,20:04:32,42,axcpt,ISI_probe,300,0,175,25,25,25,100,150,22,61,14,1,1,A,Z,L,X,0,05.0.6.0,win,12317,20:04:32,42,axcpt,trialselector,0,0,175,25,25,25,100,150,22,62,14,1,1,A,Z,L,X,0,05.0.6.0,win,12317,20:04:32,42,axcpt,AX,600,2,175,25,25,25,100,150,22,63,15,1,1,A,O,D,X,A,15.0.6.0,win,12317,20:04:32,42,axcpt,ISI_probe,300,0,175,25,25,25,100,150,22,64,15,1,1,A,O,D,X,0,05.0.6.0,win,12317,20:04:32,42,axcpt,trialselector,0,0,175,25,25,25,100,150,22,65,15,1,1,A,O,D,X,0,05.0.6.0,win,12317,20:04:32,42,axcpt,AX,362,2,175,25,25,25,100,150,22,66,16,1,1,A,R,B,X,A,15.0.6.0,win,12317,20:04:32,42,axcpt,ISI_probe,300,0,175,25,25,25,100,150,22,67,16,1,1,A,R,B,X,0,05.0.6.0,win,12317,20:04:32,42,axcpt,trialselector,0,0,175,25,25,25,100,150,22,68,16,4,1,A,R,B,X,0,05.0.6.0,win,12317,20:04:32,42,axcpt,BY,1042,3,175,25,25,25,100,150,22,69,17,4,1,I,H,V,S,I,15.0.6.0,win,12317,20:04:32,42,axcpt,ISI_probe,158,0,175,25,25,25,100,150,22,70,17,4,1,I,H,V,S,0,05.0.6.0,win,12317,20:04:32,42,axcpt,trialselector,0,0,175,25,25,25,100,150,22,71,17,3,1,I,H,V,S,0,05.0.6.0,win,12317,20:04:32,42,axcpt,BX,1200,0,175,25,25,25,100,150,22,72,18,3,1,L,S,B,X,L,05.0.6.0,win,12317,20:04:32,42,axcpt,ISI_probe,0,0,175,25,25,25,100,150,22,73,18,3,1,L,S,B,X,0,05.0.6.0,win,12317,20:04:32,42,axcpt,trialselector,0,0,175,25,25,25,100,150,22,74,18,2,1,L,S,B,X,0,05.0.6.0,win,12317,20:04:32,42,axcpt,AY,780,3,175,25,25,25,100,150,22,75,19,2,1,A,B,L,S,A,15.0.6.0,win,12317,20:04:32,42,axcpt,ISI_probe,300,0,175,25,25,25,100,150,22,76,19,2,1,A,B,L,S,0,05.0.6.0,win,12317,20:04:32,42,axcpt,trialselector,0,0,175,25,25,25,100,150,22,77,19,1,1,A,B,L,S,0,05.0.6.0,win,12317,20:04:32,42,axcpt,AX,873,2,175,25,25,25,100,150,22,78,20,1,1,A,H,B,X,A,15.0.6.0,win,12317,20:04:32,42,axcpt,ISI_probe,300,0,175,25,25,25,100,150,22,79,20,1,1,A,H,B,X,0,05.0.6.0,win,12317,20:04:32,42,axcpt,trialselector,0,0,175,25,25,25,100,150,22,80,20,4,1,A,H,B,X,0,05.0.6.0,win,12317,20:04:32,42,axcpt,BY,572,3,175,25,25,25,100,150,22,81,21,4,1,M,D,O,S,M,15.0.6.0,win,12317,20:04:32,42,axcpt,ISI_probe,300,0,175,25,25,25,100,150,22,82,21,4,1,M,D,O,S,0,05.0.6.0,win,12317,20:04:32,42,axcpt,trialselector,0,0,175,25,25,25,100,150,22,83,21,1,1,M,D,O,S,0,05.0.6.0,win,12317,20:04:32,42,axcpt,AX,596,2,175,25,25,25,100,150,22,84,22,1,1,A,M,H,X,A,15.0.6.0,win,12317,20:04:32,42,axcpt,ISI_probe,300,0,175,25,25,25,100,150,22,85,22,1,1,A,M,H,X,0,05.0.6.0,win,12317,20:04:32,42,axcpt,trialselector,0,0,175,25,25,25,100,150,22,86,22,1,1,A,M,H,X,0,05.0.6.0,win,12317,20:04:32,42,axcpt,AX,591,2,175,25,25,25,100,150,22,87,23,1,1,A,J,R,X,A,15.0.6.0,win,12317,20:04:32,42,axcpt,ISI_probe,300,0,175,25,25,25,100,150,22,88,23,1,1,A,J,R,X,0,05.0.6.0,win,12317,20:04:32,42,axcpt,trialselector,0,0,175,25,25,25,100,150,22,89,23,1,1,A,J,R,X,0,05.0.6.0,win,12317,20:04:32,42,axcpt,AX,541,2,175,25,25,25,100,150,22,90,24,1,1,A,S,R,X,A,15.0.6.0,win,12317,20:04:32,42,axcpt,ISI_probe,300,0,175,25,25,25,100,150,22,91,24,1,1,A,S,R,X,0,05.0.6.0,win,12317,20:04:32,42,axcpt,trialselector,0,0,175,25,25,25,100,150,22,92,24,1,1,A,S,R,X,0,05.0.6.0,win,12317,20:04:32,42,axcpt,AX,440,2,175,25,25,25,100,150,22,93,25,1,1,A,Z,B,X,A,15.0.6.0,win,12317,20:04:32,42,axcpt,ISI_probe,300,0,175,25,25,25,100,150,22,94,25,1,1,A,Z,B,X,0,05.0.6.0,win,12317,20:04:32,42,axcpt,trialselector,0,0,175,25,25,25,100,150,22,95,25,1,1,A,Z,B,X,0,05.0.6.0,win,12317,20:04:32,42,axcpt,AX,360,2,175,25,25,25,100,150,22,96,26,1,1,A,C,V,X,A,15.0.6.0,win,12317,20:04:32,42,axcpt,ISI_probe,300,0,175,25,25,25,100,150,22,97,26,1,1,A,C,V,X,0,05.0.6.0,win,12317,20:04:32,42,axcpt,trialselector,0,0,175,25,25,25,100,150,22,98,26,1,1,A,C,V,X,0,05.0.6.0,win,12317,20:04:32,42,axcpt,AX,391,2,175,25,25,25,100,150,22,99,27,1,1,A,N,H,X,A,15.0.6.0,win,12317,20:04:32,42,axcpt,ISI_probe,300,0,175,25,25,25,100,150,22,100,27,1,1,A,N,H,X,0,05.0.6.0,win,12317,20:04:32,42,axcpt,trialselector,0,0,175,25,25,25,100,150,22,101,27,1,1,A,N,H,X,0,05.0.6.0,win,12317,20:04:32,42,axcpt,AX,423,2,175,25,25,25,100,150,22,102,28,1,1,A,Z,S,X,A,15.0.6.0,win,12317,20:04:32,42,axcpt,ISI_probe,300,0,175,25,25,25,100,150,22,103,28,1,1,A,Z,S,X,0,05.0.6.0,win,12317,20:04:32,42,axcpt,trialselector,0,0,175,25,25,25,100,150,22,104,28,4,1,A,Z,S,X,0,05.0.6.0,win,12317,20:04:32,42,axcpt,BY,544,3,175,25,25,25,100,150,22,105,29,4,1,J,V,Q,N,J,15.0.6.0,win,12317,20:04:32,42,axcpt,ISI_probe,300,0,175,25,25,25,100,150,22,106,29,4,1,J,V,Q,N,0,05.0.6.0,win,12317,20:04:32,42,axcpt,trialselector,0,0,175,25,25,25,100,150,22,107,29,1,1,J,V,Q,N,0,05.0.6.0,win,12317,20:04:32,42,axcpt,AX,547,3,175,25,25,25,100,150,22,108,30,1,1,A,C,L,X,A,05.0.6.0,win,12317,20:04:32,42,axcpt,ISI_probe,300,0,175,25,25,25,100,150,22,109,30,1,1,A,C,L,X,0,05.0.6.0,win,12317,20:04:32,42,axcpt,trialselector,0,0,175,25,25,25,100,150,22,110,30,1,1,A,C,L,X,0,05.0.6.0,win,12317,20:04:32,42,axcpt,AX,530,2,175,25,25,25,100,150,22,111,31,1,1,A,Z,B,X,A,15.0.6.0,win,12317,20:04:32,42,axcpt,ISI_probe,300,0,175,25,25,25,100,150,22,112,31,1,1,A,Z,B,X,0,05.0.6.0,win,12317,20:04:32,42,axcpt,trialselector,0,0,175,25,25,25,100,150,22,113,31,3,1,A,Z,B,X,0,05.0.6.0,win,12317,20:04:32,42,axcpt,BX,440,2,175,25,25,25,100,150,22,114,32,3,1,H,M,U,X,H,05.0.6.0,win,12317,20:04:32,42,axcpt,ISI_probe,300,0,175,25,25,25,100,150,22,115,32,3,1,H,M,U,X,0,05.0.6.0,win,12317,20:04:32,42,axcpt,trialselector,0,0,175,25,25,25,100,150,22,116,32,1,1,H,M,U,X,0,05.0.6.0,win,12317,20:04:32,42,axcpt,AX,902,2,175,25,25,25,100,150,22,117,33,1,1,A,H,R,X,A,15.0.6.0,win,12317,20:04:32,42,axcpt,ISI_probe,298,0,175,25,25,25,100,150,22,118,33,1,1,A,H,R,X,0,05.0.6.0,win,12317,20:04:32,42,axcpt,trialselector,0,0,175,25,25,25,100,150,22,119,33,1,1,A,H,R,X,0,05.0.6.0,win,12317,20:04:32,42,axcpt,AX,450,2,175,25,25,25,100,150,22,120,34,1,1,A,J,I,X,A,15.0.6.0,win,12317,20:04:32,42,axcpt,ISI_probe,300,0,175,25,25,25,100,150,22,121,34,1,1,A,J,I,X,0,05.0.6.0,win,12317,20:04:32,42,axcpt,trialselector,0,0,175,25,25,25,100,150,22,122,34,1,1,A,J,I,X,0,05.0.6.0,win,12317,20:04:32,42,axcpt,AX,706,2,175,25,25,25,100,150,22,123,35,1,1,A,U,B,X,A,15.0.6.0,win,12317,20:04:32,42,axcpt,ISI_probe,300,0,175,25,25,25,100,150,22,124,35,1,1,A,U,B,X,0,05.0.6.0,win,12317,20:04:32,42,axcpt,trialselector,0,0,175,25,25,25,100,150,22,125,35,4,1,A,U,B,X,0,05.0.6.0,win,12317,20:04:32,42,axcpt,BY,801,3,175,25,25,25,100,150,22,126,36,4,1,B,J,U,O,B,15.0.6.0,win,12317,20:04:32,42,axcpt,ISI_probe,300,0,175,25,25,25,100,150,22,127,36,4,1,B,J,U,O,0,05.0.6.0,win,12317,20:04:32,42,axcpt,trialselector,0,0,175,25,25,25,100,150,22,128,36,1,1,B,J,U,O,0,05.0.6.0,win,12317,20:04:32,42,axcpt,AX,553,2,175,25,25,25,100,150,22,129,37,1,1,A,T,P,X,A,15.0.6.0,win,12317,20:04:32,42,axcpt,ISI_probe,300,0,175,25,25,25,100,150,22,130,37,1,1,A,T,P,X,0,05.0.6.0,win,12317,20:04:32,42,axcpt,trialselector,0,0,175,25,25,25,100,150,22,131,37,2,1,A,T,P,X,0,05.0.6.0,win,12317,20:04:32,42,axcpt,AY,609,3,175,25,25,25,100,150,22,132,38,2,1,A,O,S,V,A,15.0.6.0,win,12317,20:04:32,42,axcpt,ISI_probe,300,0,175,25,25,25,100,150,22,133,38,2,1,A,O,S,V,0,05.0.6.0,win,12317,20:04:32,42,axcpt,trialselector,0,0,175,25,25,25,100,150,22,134,38,1,1,A,O,S,V,0,05.0.6.0,win,12317,20:04:32,42,axcpt,AX,663,2,175,25,25,25,100,150,22,135,39,1,1,A,F,C,X,A,15.0.6.0,win,12317,20:04:32,42,axcpt,ISI_probe,300,0,175,25,25,25,100,150,22,136,39,1,1,A,F,C,X,0,05.0.6.0,win,12317,20:04:32,42,axcpt,trialselector,0,0,175,25,25,25,100,150,22,137,39,3,1,A,F,C,X,0,05.0.6.0,win,12317,20:04:32,42,axcpt,BX,545,3,175,25,25,25,100,150,22,138,40,3,1,R,M,T,X,R,15.0.6.0,win,12317,20:04:32,42,axcpt,ISI_probe,300,0,175,25,25,25,100,150,22,139,40,3,1,R,M,T,X,0,05.0.6.0,win,12317,20:04:32,42,axcpt,trialselector,0,0,175,25,25,25,100,150,22,140,40,1,1,R,M,T,X,0,05.0.6.0,win,12317,20:04:32,42,axcpt,AX,393,2,175,25,25,25,100,150,22,141,41,1,1,A,N,Q,X,A,15.0.6.0,win,12317,20:04:32,42,axcpt,ISI_probe,300,0,175,25,25,25,100,150,22,142,41,1,1,A,N,Q,X,0,05.0.6.0,win,12317,20:04:32,42,axcpt,trialselector,0,0,175,25,25,25,100,150,22,143,41,1,1,A,N,Q,X,0,05.0.6.0,win,12317,20:04:32,42,axcpt,AX,502,2,175,25,25,25,100,150,22,144,42,1,1,A,B,Z,X,A,15.0.6.0,win,12317,20:04:32,42,axcpt,ISI_probe,300,0,175,25,25,25,100,150,22,145,42,1,1,A,B,Z,X,0,05.0.6.0,win,12317,20:04:32,42,axcpt,trialselector,0,0,175,25,25,25,100,150,22,146,42,1,1,A,B,Z,X,0,05.0.6.0,win,12317,20:04:32,42,axcpt,AX,242,2,175,25,25,25,100,150,22,147,43,1,1,A,R,L,X,A,15.0.6.0,win,12317,20:04:32,42,axcpt,ISI_probe,300,0,175,25,25,25,100,150,22,148,43,1,1,A,R,L,X,0,05.0.6.0,win,12317,20:04:32,42,axcpt,trialselector,0,0,175,25,25,25,100,150,22,149,43,1,1,A,R,L,X,0,05.0.6.0,win,12317,20:04:32,42,axcpt,AX,426,2,175,25,25,25,100,150,22,150,44,1,1,A,R,H,X,A,15.0.6.0,win,12317,20:04:32,42,axcpt,ISI_probe,300,0,175,25,25,25,100,150,22,151,44,1,1,A,R,H,X,0,05.0.6.0,win,12317,20:04:32,42,axcpt,trialselector,0,0,175,25,25,25,100,150,22,152,44,2,1,A,R,H,X,0,05.0.6.0,win,12317,20:04:32,42,axcpt,AY,787,3,175,25,25,25,100,150,22,153,45,2,1,A,T,G,Z,A,15.0.6.0,win,12317,20:04:32,42,axcpt,ISI_probe,300,0,175,25,25,25,100,150,22,154,45,2,1,A,T,G,Z,0,05.0.6.0,win,12317,20:04:32,42,axcpt,trialselector,0,0,175,25,25,25,100,150,22,155,45,1,1,A,T,G,Z,0,05.0.6.0,win,12317,20:04:32,42,axcpt,AX,740,2,175,25,25,25,100,150,22,156,46,1,1,A,V,Z,X,A,15.0.6.0,win,12317,20:04:32,42,axcpt,ISI_probe,300,0,175,25,25,25,100,150,22,157,46,1,1,A,V,Z,X,0,05.0.6.0,win,12317,20:04:32,42,axcpt,trialselector,0,0,175,25,25,25,100,150,22,158,46,1,1,A,V,Z,X,0,05.0.6.0,win,12317,20:04:32,42,axcpt,AX,661,2,175,25,25,25,100,150,22,159,47,1,1,A,U,S,X,A,15.0.6.0,win,12317,20:04:32,42,axcpt,ISI_probe,300,0,175,25,25,25,100,150,22,160,47,1,1,A,U,S,X,0,05.0.6.0,win,12317,20:04:32,42,axcpt,trialselector,0,0,175,25,25,25,100,150,22,161,47,1,1,A,U,S,X,0,05.0.6.0,win,12317,20:04:32,42,axcpt,AX,409,2,175,25,25,25,100,150,22,162,48,1,1,A,H,D,X,A,15.0.6.0,win,12317,20:04:32,42,axcpt,ISI_probe,300,0,175,25,25,25,100,150,22,163,48,1,1,A,H,D,X,0,05.0.6.0,win,12317,20:04:32,42,axcpt,trialselector,0,0,175,25,25,25,100,150,22,164,48,1,1,A,H,D,X,0,05.0.6.0,win,12317,20:04:32,42,axcpt,AX,367,2,175,25,25,25,100,150,22,165,49,1,1,A,H,I,X,A,15.0.6.0,win,12317,20:04:32,42,axcpt,ISI_probe,300,0,175,25,25,25,100,150,22,166,49,1,1,A,H,I,X,0,05.0.6.0,win,12317,20:04:32,42,axcpt,trialselector,0,0,175,25,25,25,100,150,22,167,49,1,1,A,H,I,X,0,05.0.6.0,win,12317,20:04:32,42,axcpt,AX,349,2,175,25,25,25,100,150,22,168,50,1,1,A,D,M,X,A,15.0.6.0,win,12317,20:04:32,42,axcpt,ISI_probe,300,0,175,25,25,25,100,150,22,169,50,1,1,A,D,M,X,0,05.0.6.0,win,12317,20:04:32,42,axcpt,trialselector,0,0,175,25,25,25,100,150,22,170,50,1,1,A,D,M,X,0,05.0.6.0,win,12317,20:04:32,42,axcpt,AX,575,2,175,25,25,25,100,150,22,171,51,1,1,A,E,Z,X,A,15.0.6.0,win,12317,20:04:32,42,axcpt,ISI_probe,300,0,175,25,25,25,100,150,22,172,51,1,1,A,E,Z,X,0,05.0.6.0,win,12317,20:04:32,42,axcpt,trialselector,0,0,175,25,25,25,100,150,22,173,51,1,1,A,E,Z,X,0,05.0.6.0,win,12317,20:04:32,42,axcpt,AX,234,2,175,25,25,25,100,150,22,174,52,1,1,A,Z,C,X,A,15.0.6.0,win,12317,20:04:32,42,axcpt,ISI_probe,300,0,175,25,25,25,100,150,22,175,52,1,1,A,Z,C,X,0,05.0.6.0,win,12317,20:04:32,42,axcpt,trialselector,0,0,175,25,25,25,100,150,22,176,52,1,1,A,Z,C,X,0,05.0.6.0,win,12317,20:04:32,42,axcpt,AX,252,2,175,25,25,25,100,150,22,177,53,1,1,A,C,V,X,A,15.0.6.0,win,12317,20:04:32,42,axcpt,ISI_probe,300,0,175,25,25,25,100,150,22,178,53,1,1,A,C,V,X,0,05.0.6.0,win,12317,20:04:32,42,axcpt,trialselector,0,0,175,25,25,25,100,150,22,179,53,2,1,A,C,V,X,0,05.0.6.0,win,12317,20:04:32,42,axcpt,AY,659,3,175,25,25,25,100,150,22,180,54,2,1,A,U,C,G,A,15.0.6.0,win,12317,20:04:32,42,axcpt,ISI_probe,300,0,175,25,25,25,100,150,22,181,54,2,1,A,U,C,G,0,05.0.6.0,win,12317,20:04:32,42,axcpt,trialselector,0,0,175,25,25,25,100,150,22,182,54,1,1,A,U,C,G,0,05.0.6.0,win,12317,20:04:32,42,axcpt,AX,516,2,175,25,25,25,100,150,22,183,55,1,1,A,J,D,X,A,15.0.6.0,win,12317,20:04:32,42,axcpt,ISI_probe,300,0,175,25,25,25,100,150,22,184,55,1,1,A,J,D,X,0,05.0.6.0,win,12317,20:04:32,42,axcpt,trialselector,0,0,175,25,25,25,100,150,22,185,55,1,1,A,J,D,X,0,05.0.6.0,win,12317,20:04:32,42,axcpt,AX,450,2,175,25,25,25,100,150,22,186,56,1,1,A,Z,B,X,A,15.0.6.0,win,12317,20:04:32,42,axcpt,ISI_probe,300,0,175,25,25,25,100,150,22,187,56,1,1,A,Z,B,X,0,05.0.6.0,win,12317,20:04:32,42,axcpt,trialselector,0,0,175,25,25,25,100,150,22,188,56,3,1,A,Z,B,X,0,05.0.6.0,win,12317,20:04:32,42,axcpt,BX,376,2,175,25,25,25,100,150,22,189,57,3,1,J,V,Z,X,J,05.0.6.0,win,12317,20:04:32,42,axcpt,ISI_probe,300,0,175,25,25,25,100,150,22,190,57,3,1,J,V,Z,X,0,05.0.6.0,win,12317,20:04:32,42,axcpt,trialselector,0,0,175,25,25,25,100,150,22,191,57,1,1,J,V,Z,X,0,05.0.6.0,win,12317,20:04:32,42,axcpt,AX,509,2,175,25,25,25,100,150,22,192,58,1,1,A,T,P,X,A,15.0.6.0,win,12317,20:04:32,42,axcpt,ISI_probe,300,0,175,25,25,25,100,150,22,193,58,1,1,A,T,P,X,0,05.0.6.0,win,12317,20:04:32,42,axcpt,trialselector,0,0,175,25,25,25,100,150,22,194,58,1,1,A,T,P,X,0,05.0.6.0,win,12317,20:04:32,42,axcpt,AX,483,2,175,25,25,25,100,150,22,195,59,1,1,A,B,Q,X,A,15.0.6.0,win,12317,20:04:32,42,axcpt,ISI_probe,300,0,175,25,25,25,100,150,22,196,59,1,1,A,B,Q,X,0,05.0.6.0,win,12317,20:04:32,42,axcpt,trialselector,0,0,175,25,25,25,100,150,22,197,59,1,1,A,B,Q,X,0,05.0.6.0,win,12317,20:04:32,42,axcpt,AX,250,2,175,25,25,25,100,150,22,198,60,1,1,A,L,G,X,A,15.0.6.0,win,12317,20:04:32,42,axcpt,ISI_probe,300,0,175,25,25,25,100,150,22,199,60,1,1,A,L,G,X,0,05.0.6.0,win,12317,20:04:32,42,axcpt,trialselector,0,0,175,25,25,25,100,150,22,200,60,1,1,A,L,G,X,0,05.0.6.0,win,12317,20:04:32,42,axcpt,AX,527,2,175,25,25,25,100,150,22,201,61,1,1,A,M,V,X,A,15.0.6.0,win,12317,20:04:32,42,axcpt,ISI_probe,300,0,175,25,25,25,100,150,22,202,61,1,1,A,M,V,X,0,05.0.6.0,win,12317,20:04:32,42,axcpt,trialselector,0,0,175,25,25,25,100,150,22,203,61,1,1,A,M,V,X,0,05.0.6.0,win,12317,20:04:32,42,axcpt,AX,248,2,175,25,25,25,100,150,22,204,62,1,1,A,B,H,X,A,15.0.6.0,win,12317,20:04:32,42,axcpt,ISI_probe,300,0,175,25,25,25,100,150,22,205,62,1,1,A,B,H,X,0,05.0.6.0,win,12317,20:04:32,42,axcpt,trialselector,0,0,175,25,25,25,100,150,22,206,62,2,1,A,B,H,X,0,05.0.6.0,win,12317,20:04:32,42,axcpt,AY,605,3,175,25,25,25,100,150,22,207,63,2,1,A,D,Z,J,A,15.0.6.0,win,12317,20:04:32,42,axcpt,ISI_probe,300,0,175,25,25,25,100,150,22,208,63,2,1,A,D,Z,J,0,05.0.6.0,win,12317,20:04:32,42,axcpt,trialselector,0,0,175,25,25,25,100,150,22,209,63,1,1,A,D,Z,J,0,05.0.6.0,win,12317,20:04:32,42,axcpt,AX,655,2,175,25,25,25,100,150,22,210,64,1,1,A,R,D,X,A,15.0.6.0,win,12317,20:04:32,42,axcpt,ISI_probe,300,0,175,25,25,25,100,150,22,211,64,1,1,A,R,D,X,0,05.0.6.0,win,12317,20:04:32,42,axcpt,trialselector,0,0,175,25,25,25,100,150,22,212,64,2,1,A,R,D,X,0,05.0.6.0,win,12317,20:04:32,42,axcpt,AY,647,3,175,25,25,25,100,150,22,213,65,2,1,A,P,R,I,A,15.0.6.0,win,12317,20:04:32,42,axcpt,ISI_probe,300,0,175,25,25,25,100,150,22,214,65,2,1,A,P,R,I,0,05.0.6.0,win,12317,20:04:32,42,axcpt,trialselector,0,0,175,25,25,25,100,150,22,215,65,1,1,A,P,R,I,0,05.0.6.0,win,12317,20:04:32,42,axcpt,AX,461,2,175,25,25,25,100,150,22,216,66,1,1,A,Q,O,X,A,15.0.6.0,win,12317,20:04:32,42,axcpt,ISI_probe,300,0,175,25,25,25,100,150,22,217,66,1,1,A,Q,O,X,0,05.0.6.0,win,12317,20:04:32,42,axcpt,trialselector,0,0,175,25,25,25,100,150,22,218,66,1,1,A,Q,O,X,0,05.0.6.0,win,12317,20:04:32,42,axcpt,AX,517,2,175,25,25,25,100,150,22,219,67,1,1,A,M,U,X,A,15.0.6.0,win,12317,20:04:32,42,axcpt,ISI_probe,300,0,175,25,25,25,100,150,22,220,67,1,1,A,M,U,X,0,05.0.6.0,win,12317,20:04:32,42,axcpt,trialselector,0,0,175,25,25,25,100,150,22,221,67,1,1,A,M,U,X,0,05.0.6.0,win,12317,20:04:32,42,axcpt,AX,565,2,175,25,25,25,100,150,22,222,68,1,1,A,D,N,X,A,15.0.6.0,win,12317,20:04:32,42,axcpt,ISI_probe,300,0,175,25,25,25,100,150,22,223,68,1,1,A,D,N,X,0,05.0.6.0,win,12317,20:04:32,42,axcpt,trialselector,0,0,175,25,25,25,100,150,22,224,68,3,1,A,D,N,X,0,05.0.6.0,win,12317,20:04:32,42,axcpt,BX,548,2,175,25,25,25,100,150,22,225,69,3,1,B,T,E,X,B,05.0.6.0,win,12317,20:04:32,42,axcpt,ISI_probe,300,0,175,25,25,25,100,150,22,226,69,3,1,B,T,E,X,0,05.0.6.0,win,12317,20:04:32,42,axcpt,trialselector,0,0,175,25,25,25,100,150,22,227,69,1,1,B,T,E,X,0,05.0.6.0,win,12317,20:04:32,42,axcpt,AX,468,2,175,25,25,25,100,150,22,228,70,1,1,A,G,I,X,A,15.0.6.0,win,12317,20:04:32,42,axcpt,ISI_probe,300,0,175,25,25,25,100,150,22,229,70,1,1,A,G,I,X,0,05.0.6.0,win,12317,20:04:32,42,axcpt,trialselector,0,0,175,25,25,25,100,150,22,230,70,1,1,A,G,I,X,0,05.0.6.0,win,12317,20:04:32,42,axcpt,AX,448,2,175,25,25,25,100,150,22,231,71,1,1,A,S,V,X,A,15.0.6.0,win,12317,20:04:32,42,axcpt,ISI_probe,300,0,175,25,25,25,100,150,22,232,71,1,1,A,S,V,X,0,05.0.6.0,win,12317,20:04:32,42,axcpt,trialselector,0,0,175,25,25,25,100,150,22,233,71,2,1,A,S,V,X,0,05.0.6.0,win,12317,20:04:32,42,axcpt,AY,692,3,175,25,25,25,100,150,22,234,72,2,1,A,V,B,N,A,15.0.6.0,win,12317,20:04:32,42,axcpt,ISI_probe,300,0,175,25,25,25,100,150,22,235,72,2,1,A,V,B,N,0,05.0.6.0,win,12317,20:04:32,42,axcpt,trialselector,0,0,175,25,25,25,100,150,22,236,72,1,1,A,V,B,N,0,05.0.6.0,win,12317,20:04:32,42,axcpt,AX,523,2,175,25,25,25,100,150,22,237,73,1,1,A,F,H,X,A,15.0.6.0,win,12317,20:04:32,42,axcpt,ISI_probe,300,0,175,25,25,25,100,150,22,238,73,1,1,A,F,H,X,0,05.0.6.0,win,12317,20:04:32,42,axcpt,trialselector,0,0,175,25,25,25,100,150,22,239,73,1,1,A,F,H,X,0,05.0.6.0,win,12317,20:04:32,42,axcpt,AX,454,2,175,25,25,25,100,150,22,240,74,1,1,A,D,U,X,A,15.0.6.0,win,12317,20:04:32,42,axcpt,ISI_probe,300,0,175,25,25,25,100,150,22,241,74,1,1,A,D,U,X,0,05.0.6.0,win,12317,20:04:32,42,axcpt,trialselector,0,0,175,25,25,25,100,150,22,242,74,1,1,A,D,U,X,0,05.0.6.0,win,12317,20:04:32,42,axcpt,AX,366,2,175,25,25,25,100,150,22,243,75,1,1,A,V,L,X,A,15.0.6.0,win,12317,20:04:32,42,axcpt,ISI_probe,300,0,175,25,25,25,100,150,22,244,75,1,1,A,V,L,X,0,05.0.6.0,win,12317,20:04:32,42,axcpt,trialselector,0,0,175,25,25,25,100,150,22,245,75,3,1,A,V,L,X,0,05.0.6.0,win,12317,20:04:32,42,axcpt,BX,589,2,175,25,25,25,100,150,22,246,76,3,1,L,J,R,X,L,05.0.6.0,win,12317,20:04:32,42,axcpt,ISI_probe,300,0,175,25,25,25,100,150,22,247,76,3,1,L,J,R,X,0,05.0.6.0,win,12317,20:04:32,42,axcpt,trialselector,0,0,175,25,25,25,100,150,22,248,76,4,1,L,J,R,X,0,05.0.6.0,win,12317,20:04:32,42,axcpt,BY,933,3,175,25,25,25,100,150,22,249,77,4,1,U,F,J,E,U,15.0.6.0,win,12317,20:04:32,42,axcpt,ISI_probe,267,0,175,25,25,25,100,150,22,250,77,4,1,U,F,J,E,0,05.0.6.0,win,12317,20:04:32,42,axcpt,trialselector,0,0,175,25,25,25,100,150,22,251,77,1,1,U,F,J,E,0,05.0.6.0,win,12317,20:04:32,42,axcpt,AX,676,2,175,25,25,25,100,150,22,252,78,1,1,A,R,D,X,A,15.0.6.0,win,12317,20:04:32,42,axcpt,ISI_probe,300,0,175,25,25,25,100,150,22,253,78,1,1,A,R,D,X,0,05.0.6.0,win,12317,20:04:32,42,axcpt,trialselector,0,0,175,25,25,25,100,150,22,254,78,2,1,A,R,D,X,0,05.0.6.0,win,12317,20:04:32,42,axcpt,AY,729,3,175,25,25,25,100,150,22,255,79,2,1,A,V,U,O,A,15.0.6.0,win,12317,20:04:32,42,axcpt,ISI_probe,300,0,175,25,25,25,100,150,22,256,79,2,1,A,V,U,O,0,05.0.6.0,win,12317,20:04:32,42,axcpt,trialselector,0,0,175,25,25,25,100,150,22,257,79,3,1,A,V,U,O,0,05.0.6.0,win,12317,20:04:32,42,axcpt,BX,614,2,175,25,25,25,100,150,22,258,80,3,1,L,B,J,X,L,05.0.6.0,win,12317,20:04:32,42,axcpt,ISI_probe,300,0,175,25,25,25,100,150,22,259,80,3,1,L,B,J,X,0,05.0.6.0,win,12317,20:04:32,42,axcpt,trialselector,0,0,175,25,25,25,100,150,22,260,80,1,1,L,B,J,X,0,05.0.6.0,win,12317,20:04:32,42,axcpt,AX,399,2,175,25,25,25,100,150,22,261,81,1,1,A,N,O,X,A,15.0.6.0,win,12317,20:04:32,42,axcpt,ISI_probe,300,0,175,25,25,25,100,150,22,262,81,1,1,A,N,O,X,0,05.0.6.0,win,12317,20:04:32,42,axcpt,trialselector,0,0,175,25,25,25,100,150,22,263,81,1,1,A,N,O,X,0,05.0.6.0,win,12317,20:04:32,42,axcpt,AX,296,2,175,25,25,25,100,150,22,264,82,1,1,A,F,N,X,A,15.0.6.0,win,12317,20:04:32,42,axcpt,ISI_probe,300,0,175,25,25,25,100,150,22,265,82,1,1,A,F,N,X,0,05.0.6.0,win,12317,20:04:32,42,axcpt,trialselector,0,0,175,25,25,25,100,150,22,266,82,1,1,A,F,N,X,0,05.0.6.0,win,12317,20:04:32,42,axcpt,AX,381,2,175,25,25,25,100,150,22,267,83,1,1,A,O,T,X,A,15.0.6.0,win,12317,20:04:32,42,axcpt,ISI_probe,300,0,175,25,25,25,100,150,22,268,83,1,1,A,O,T,X,0,05.0.6.0,win,12317,20:04:32,42,axcpt,trialselector,0,0,175,25,25,25,100,150,22,269,83,1,1,A,O,T,X,0,05.0.6.0,win,12317,20:04:32,42,axcpt,AX,384,2,175,25,25,25,100,150,22,270,84,1,1,A,Q,S,X,A,15.0.6.0,win,12317,20:04:32,42,axcpt,ISI_probe,300,0,175,25,25,25,100,150,22,271,84,1,1,A,Q,S,X,0,05.0.6.0,win,12317,20:04:32,42,axcpt,trialselector,0,0,175,25,25,25,100,150,22,272,84,1,1,A,Q,S,X,0,05.0.6.0,win,12317,20:04:32,42,axcpt,AX,451,2,175,25,25,25,100,150,22,273,85,1,1,A,N,U,X,A,15.0.6.0,win,12317,20:04:32,42,axcpt,ISI_probe,300,0,175,25,25,25,100,150,22,274,85,1,1,A,N,U,X,0,05.0.6.0,win,12317,20:04:32,42,axcpt,trialselector,0,0,175,25,25,25,100,150,22,275,85,1,1,A,N,U,X,0,05.0.6.0,win,12317,20:04:32,42,axcpt,AX,298,2,175,25,25,25,100,150,22,276,86,1,1,A,L,J,X,A,15.0.6.0,win,12317,20:04:32,42,axcpt,ISI_probe,300,0,175,25,25,25,100,150,22,277,86,1,1,A,L,J,X,0,05.0.6.0,win,12317,20:04:32,42,axcpt,trialselector,0,0,175,25,25,25,100,150,22,278,86,1,1,A,L,J,X,0,05.0.6.0,win,12317,20:04:32,42,axcpt,AX,322,2,175,25,25,25,100,150,22,279,87,1,1,A,U,S,X,A,15.0.6.0,win,12317,20:04:32,42,axcpt,ISI_probe,300,0,175,25,25,25,100,150,22,280,87,1,1,A,U,S,X,0,05.0.6.0,win,12317,20:04:32,42,axcpt,trialselector,0,0,175,25,25,25,100,150,22,281,87,2,1,A,U,S,X,0,05.0.6.0,win,12317,20:04:32,42,axcpt,AY,725,3,175,25,25,25,100,150,22,282,88,2,1,A,F,V,M,A,15.0.6.0,win,12317,20:04:32,42,axcpt,ISI_probe,300,0,175,25,25,25,100,150,22,283,88,2,1,A,F,V,M,0,05.0.6.0,win,12317,20:04:32,42,axcpt,trialselector,0,0,175,25,25,25,100,150,22,284,88,4,1,A,F,V,M,0,05.0.6.0,win,12317,20:04:32,42,axcpt,BY,722,3,175,25,25,25,100,150,22,285,89,4,1,F,P,T,V,F,15.0.6.0,win,12317,20:04:32,42,axcpt,ISI_probe,300,0,175,25,25,25,100,150,22,286,89,4,1,F,P,T,V,0,05.0.6.0,win,12317,20:04:32,42,axcpt,trialselector,0,0,175,25,25,25,100,150,22,287,89,3,1,F,P,T,V,0,05.0.6.0,win,12317,20:04:32,42,axcpt,BX,339,2,175,25,25,25,100,150,22,288,90,3,1,E,H,C,X,E,05.0.6.0,win,12317,20:04:32,42,axcpt,ISI_probe,300,0,175,25,25,25,100,150,22,289,90,3,1,E,H,C,X,0,05.0.6.0,win,12317,20:04:32,42,axcpt,trialselector,0,0,175,25,25,25,100,150,22,290,90,1,1,E,H,C,X,0,05.0.6.0,win,12317,20:04:32,42,axcpt,AX,1143,2,175,25,25,25,100,150,22,291,91,1,1,A,H,G,X,A,15.0.6.0,win,12317,20:04:32,42,axcpt,ISI_probe,57,0,175,25,25,25,100,150,22,292,91,1,1,A,H,G,X,0,05.0.6.0,win,12317,20:04:32,42,axcpt,trialselector,0,0,175,25,25,25,100,150,22,293,91,2,1,A,H,G,X,0,05.0.6.0,win,12317,20:04:32,42,axcpt,AY,648,3,175,25,25,25,100,150,22,294,92,2,1,A,J,P,H,A,15.0.6.0,win,12317,20:04:32,42,axcpt,ISI_probe,300,0,175,25,25,25,100,150,22,295,92,2,1,A,J,P,H,0,05.0.6.0,win,12317,20:04:32,42,axcpt,trialselector,0,0,175,25,25,25,100,150,22,296,92,1,1,A,J,P,H,0,05.0.6.0,win,12317,20:04:32,42,axcpt,AX,527,3,175,25,25,25,100,150,22,297,93,1,1,A,Z,L,X,A,05.0.6.0,win,12317,20:04:32,42,axcpt,ISI_probe,300,0,175,25,25,25,100,150,22,298,93,1,1,A,Z,L,X,0,05.0.6.0,win,12317,20:04:32,42,axcpt,trialselector,0,0,175,25,25,25,100,150,22,299,93,1,1,A,Z,L,X,0,05.0.6.0,win,12317,20:04:32,42,axcpt,AX,448,2,175,25,25,25,100,150,22,300,94,1,1,A,E,U,X,A,15.0.6.0,win,12317,20:04:32,42,axcpt,ISI_probe,300,0,175,25,25,25,100,150,22,301,94,1,1,A,E,U,X,0,05.0.6.0,win,12317,20:04:32,42,axcpt,trialselector,0,0,175,25,25,25,100,150,22,302,94,1,1,A,E,U,X,0,05.0.6.0,win,12317,20:04:32,42,axcpt,AX,547,2,175,25,25,25,100,150,22,303,95,1,1,A,C,D,X,A,15.0.6.0,win,12317,20:04:32,42,axcpt,ISI_probe,300,0,175,25,25,25,100,150,22,304,95,1,1,A,C,D,X,0,05.0.6.0,win,12317,20:04:32,42,axcpt,trialselector,0,0,175,25,25,25,100,150,22,305,95,1,1,A,C,D,X,0,05.0.6.0,win,12317,20:04:32,42,axcpt,AX,240,2,175,25,25,25,100,150,22,306,96,1,1,A,B,T,X,A,15.0.6.0,win,12317,20:04:32,42,axcpt,ISI_probe,300,0,175,25,25,25,100,150,22,307,96,1,1,A,B,T,X,0,05.0.6.0,win,12317,20:04:32,42,axcpt,trialselector,0,0,175,25,25,25,100,150,22,308,96,1,1,A,B,T,X,0,05.0.6.0,win,12317,20:04:32,42,axcpt,AX,296,2,175,25,25,25,100,150,22,309,97,1,1,A,M,U,X,A,15.0.6.0,win,12317,20:04:32,42,axcpt,ISI_probe,300,0,175,25,25,25,100,150,22,310,97,1,1,A,M,U,X,0,05.0.6.0,win,12317,20:04:32,42,axcpt,trialselector,0,0,175,25,25,25,100,150,22,311,97,3,1,A,M,U,X,0,05.0.6.0,win,12317,20:04:32,42,axcpt,BX,624,2,175,25,25,25,100,150,22,312,98,3,1,E,C,I,X,E,05.0.6.0,win,12317,20:04:32,42,axcpt,ISI_probe,300,0,175,25,25,25,100,150,22,313,98,3,1,E,C,I,X,0,05.0.6.0,win,12317,20:04:32,42,axcpt,trialselector,0,0,175,25,25,25,100,150,22,314,98,2,1,E,C,I,X,0,05.0.6.0,win,12317,20:04:32,42,axcpt,AY,610,3,175,25,25,25,100,150,22,315,99,2,1,A,E,U,T,A,15.0.6.0,win,12317,20:04:32,42,axcpt,ISI_probe,300,0,175,25,25,25,100,150,22,316,99,2,1,A,E,U,T,0,05.0.6.0,win,12317,20:04:32,42,axcpt,trialselector,0,0,175,25,25,25,100,150,22,317,99,1,1,A,E,U,T,0,05.0.6.0,win,12317,20:04:32,42,axcpt,AX,963,2,175,25,25,25,100,150,22,318,100,1,1,A,B,T,X,A,15.0.6.0,win,12317,20:04:32,42,axcpt,ISI_probe,237,0,175,25,25,25,100,150,22,319,100,1,1,A,B,T,X,0,05.0.6.0,win,12317,20:04:32,42,axcpt,trialselector,0,0,175,25,25,25,100,150,22,320,100,3,1,A,B,T,X,0,05.0.6.0,win,12317,20:04:32,42,axcpt,BX,596,2,175,25,25,25,100,150,22,321,101,3,2,L,T,C,X,L,05.0.6.0,win,12317,20:04:32,42,axcpt,ISI_probe,300,0,175,25,25,25,100,150,22,322,101,3,2,L,T,C,X,0,05.0.6.0,win,12317,20:04:32,42,axcpt,trialselector,0,0,175,25,25,25,100,150,22,323,101,1,2,L,T,C,X,0,05.0.6.0,win,12317,20:04:32,42,axcpt,AX,498,2,175,25,25,25,100,150,22,324,102,1,2,A,C,D,X,A,15.0.6.0,win,12317,20:04:32,42,axcpt,ISI_probe,300,0,175,25,25,25,100,150,22,325,102,1,2,A,C,D,X,0,05.0.6.0,win,12317,20:04:32,42,axcpt,trialselector,0,0,175,25,25,25,100,150,22,326,102,3,2,A,C,D,X,0,05.0.6.0,win,12317,20:04:32,42,axcpt,BX,998,2,175,25,25,25,100,150,22,327,103,3,2,G,R,C,X,G,05.0.6.0,win,12317,20:04:32,42,axcpt,ISI_probe,202,0,175,25,25,25,100,150,22,328,103,3,2,G,R,C,X,0,05.0.6.0,win,12317,20:04:32,42,axcpt,trialselector,0,0,175,25,25,25,100,150,22,329,103,3,2,G,R,C,X,0,05.0.6.0,win,12317,20:04:32,42,axcpt,BX,699,2,175,25,25,25,100,150,22,330,104,3,2,S,V,M,X,S,05.0.6.0,win,12317,20:04:32,42,axcpt,ISI_probe,300,0,175,25,25,25,100,150,22,331,104,3,2,S,V,M,X,0,05.0.6.0,win,12317,20:04:32,42,axcpt,trialselector,0,0,175,25,25,25,100,150,22,332,104,1,2,S,V,M,X,0,05.0.6.0,win,12317,20:04:32,42,axcpt,AX,1004,2,175,25,25,25,100,150,22,333,105,1,2,A,V,O,X,A,15.0.6.0,win,12317,20:04:32,42,axcpt,ISI_probe,196,0,175,25,25,25,100,150,22,334,105,1,2,A,V,O,X,0,05.0.6.0,win,12317,20:04:32,42,axcpt,trialselector,0,0,175,25,25,25,100,150,22,335,105,1,2,A,V,O,X,0,05.0.6.0,win,12317,20:04:32,42,axcpt,AX,766,2,175,25,25,25,100,150,22,336,106,1,2,A,S,D,X,A,15.0.6.0,win,12317,20:04:32,42,axcpt,ISI_probe,300,0,175,25,25,25,100,150,22,337,106,1,2,A,S,D,X,0,05.0.6.0,win,12317,20:04:32,42,axcpt,trialselector,0,0,175,25,25,25,100,150,22,338,106,4,2,A,S,D,X,0,05.0.6.0,win,12317,20:04:32,42,axcpt,BY,927,3,175,25,25,25,100,150,22,339,107,4,2,G,V,T,R,G,15.0.6.0,win,12317,20:04:32,42,axcpt,ISI_probe,273,0,175,25,25,25,100,150,22,340,107,4,2,G,V,T,R,0,05.0.6.0,win,12317,20:04:32,42,axcpt,trialselector,0,0,175,25,25,25,100,150,22,341,107,2,2,G,V,T,R,0,05.0.6.0,win,12317,20:04:32,42,axcpt,AY,1065,3,175,25,25,25,100,150,22,342,108,2,2,A,C,E,Q,A,15.0.6.0,win,12317,20:04:32,42,axcpt,ISI_probe,135,0,175,25,25,25,100,150,22,343,108,2,2,A,C,E,Q,0,05.0.6.0,win,12317,20:04:32,42,axcpt,trialselector,0,0,175,25,25,25,100,150,22,344,108,1,2,A,C,E,Q,0,05.0.6.0,win,12317,20:04:32,42,axcpt,AX,578,2,175,25,25,25,100,150,22,345,109,1,2,A,Q,U,X,A,15.0.6.0,win,12317,20:04:32,42,axcpt,ISI_probe,300,0,175,25,25,25,100,150,22,346,109,1,2,A,Q,U,X,0,05.0.6.0,win,12317,20:04:32,42,axcpt,trialselector,0,0,175,25,25,25,100,150,22,347,109,1,2,A,Q,U,X,0,05.0.6.0,win,12317,20:04:32,42,axcpt,AX,316,2,175,25,25,25,100,150,22,348,110,1,2,A,V,N,X,A,15.0.6.0,win,12317,20:04:32,42,axcpt,ISI_probe,300,0,175,25,25,25,100,150,22,349,110,1,2,A,V,N,X,0,05.0.6.0,win,12317,20:04:32,42,axcpt,trialselector,0,0,175,25,25,25,100,150,22,350,110,1,2,A,V,N,X,0,05.0.6.0,win,12317,20:04:32,42,axcpt,AX,403,2,175,25,25,25,100,150,22,351,111,1,2,A,N,L,X,A,15.0.6.0,win,12317,20:04:32,42,axcpt,ISI_probe,300,0,175,25,25,25,100,150,22,352,111,1,2,A,N,L,X,0,05.0.6.0,win,12317,20:04:32,42,axcpt,trialselector,0,0,175,25,25,25,100,150,22,353,111,1,2,A,N,L,X,0,05.0.6.0,win,12317,20:04:32,42,axcpt,AX,277,2,175,25,25,25,100,150,22,354,112,1,2,A,R,U,X,A,15.0.6.0,win,12317,20:04:32,42,axcpt,ISI_probe,300,0,175,25,25,25,100,150,22,355,112,1,2,A,R,U,X,0,05.0.6.0,win,12317,20:04:32,42,axcpt,trialselector,0,0,175,25,25,25,100,150,22,356,112,1,2,A,R,U,X,0,05.0.6.0,win,12317,20:04:32,42,axcpt,AX,300,2,175,25,25,25,100,150,22,357,113,1,2,A,B,E,X,A,15.0.6.0,win,12317,20:04:32,42,axcpt,ISI_probe,300,0,175,25,25,25,100,150,22,358,113,1,2,A,B,E,X,0,05.0.6.0,win,12317,20:04:32,42,axcpt,trialselector,0,0,175,25,25,25,100,150,22,359,113,3,2,A,B,E,X,0,05.0.6.0,win,12317,20:04:32,42,axcpt,BX,489,2,175,25,25,25,100,150,22,360,114,3,2,I,R,N,X,I,05.0.6.0,win,12317,20:04:32,42,axcpt,ISI_probe,300,0,175,25,25,25,100,150,22,361,114,3,2,I,R,N,X,0,05.0.6.0,win,12317,20:04:32,42,axcpt,trialselector,0,0,175,25,25,25,100,150,22,362,114,2,2,I,R,N,X,0,05.0.6.0,win,12317,20:04:32,42,axcpt,AY,536,3,175,25,25,25,100,150,22,363,115,2,2,A,D,F,M,A,15.0.6.0,win,12317,20:04:32,42,axcpt,ISI_probe,300,0,175,25,25,25,100,150,22,364,115,2,2,A,D,F,M,0,05.0.6.0,win,12317,20:04:32,42,axcpt,trialselector,0,0,175,25,25,25,100,150,22,365,115,1,2,A,D,F,M,0,05.0.6.0,win,12317,20:04:32,42,axcpt,AX,707,2,175,25,25,25,100,150,22,366,116,1,2,A,G,Z,X,A,15.0.6.0,win,12317,20:04:32,42,axcpt,ISI_probe,300,0,175,25,25,25,100,150,22,367,116,1,2,A,G,Z,X,0,05.0.6.0,win,12317,20:04:32,42,axcpt,trialselector,0,0,175,25,25,25,100,150,22,368,116,1,2,A,G,Z,X,0,05.0.6.0,win,12317,20:04:32,42,axcpt,AX,525,2,175,25,25,25,100,150,22,369,117,1,2,A,E,T,X,A,15.0.6.0,win,12317,20:04:32,42,axcpt,ISI_probe,300,0,175,25,25,25,100,150,22,370,117,1,2,A,E,T,X,0,05.0.6.0,win,12317,20:04:32,42,axcpt,trialselector,0,0,175,25,25,25,100,150,22,371,117,2,2,A,E,T,X,0,05.0.6.0,win,12317,20:04:32,42,axcpt,AY,621,3,175,25,25,25,100,150,22,372,118,2,2,A,T,E,D,A,15.0.6.0,win,12317,20:04:32,42,axcpt,ISI_probe,300,0,175,25,25,25,100,150,22,373,118,2,2,A,T,E,D,0,05.0.6.0,win,12317,20:04:32,42,axcpt,trialselector,0,0,175,25,25,25,100,150,22,374,118,1,2,A,T,E,D,0,05.0.6.0,win,12317,20:04:32,42,axcpt,AX,526,2,175,25,25,25,100,150,22,375,119,1,2,A,C,P,X,A,15.0.6.0,win,12317,20:04:32,42,axcpt,ISI_probe,300,0,175,25,25,25,100,150,22,376,119,1,2,A,C,P,X,0,05.0.6.0,win,12317,20:04:32,42,axcpt,trialselector,0,0,175,25,25,25,100,150,22,377,119,1,2,A,C,P,X,0,05.0.6.0,win,12317,20:04:32,42,axcpt,AX,270,2,175,25,25,25,100,150,22,378,120,1,2,A,D,V,X,A,15.0.6.0,win,12317,20:04:32,42,axcpt,ISI_probe,300,0,175,25,25,25,100,150,22,379,120,1,2,A,D,V,X,0,05.0.6.0,win,12317,20:04:32,42,axcpt,trialselector,0,0,175,25,25,25,100,150,22,380,120,1,2,A,D,V,X,0,05.0.6.0,win,12317,20:04:32,42,axcpt,AX,295,2,175,25,25,25,100,150,22,381,121,1,2,A,H,O,X,A,15.0.6.0,win,12317,20:04:32,42,axcpt,ISI_probe,300,0,175,25,25,25,100,150,22,382,121,1,2,A,H,O,X,0,05.0.6.0,win,12317,20:04:32,42,axcpt,trialselector,0,0,175,25,25,25,100,150,22,383,121,1,2,A,H,O,X,0,05.0.6.0,win,12317,20:04:32,42,axcpt,AX,327,2,175,25,25,25,100,150,22,384,122,1,2,A,C,L,X,A,15.0.6.0,win,12317,20:04:32,42,axcpt,ISI_probe,300,0,175,25,25,25,100,150,22,385,122,1,2,A,C,L,X,0,05.0.6.0,win,12317,20:04:32,42,axcpt,trialselector,0,0,175,25,25,25,100,150,22,386,122,1,2,A,C,L,X,0,05.0.6.0,win,12317,20:04:32,42,axcpt,AX,390,2,175,25,25,25,100,150,22,387,123,1,2,A,U,M,X,A,15.0.6.0,win,12317,20:04:32,42,axcpt,ISI_probe,300,0,175,25,25,25,100,150,22,388,123,1,2,A,U,M,X,0,05.0.6.0,win,12317,20:04:32,42,axcpt,trialselector,0,0,175,25,25,25,100,150,22,389,123,2,2,A,U,M,X,0,05.0.6.0,win,12317,20:04:32,42,axcpt,AY,675,3,175,25,25,25,100,150,22,390,124,2,2,A,L,C,P,A,15.0.6.0,win,12317,20:04:32,42,axcpt,ISI_probe,300,0,175,25,25,25,100,150,22,391,124,2,2,A,L,C,P,0,05.0.6.0,win,12317,20:04:32,42,axcpt,trialselector,0,0,175,25,25,25,100,150,22,392,124,1,2,A,L,C,P,0,05.0.6.0,win,12317,20:04:32,42,axcpt,AX,698,2,175,25,25,25,100,150,22,393,125,1,2,A,U,B,X,A,15.0.6.0,win,12317,20:04:32,42,axcpt,ISI_probe,300,0,175,25,25,25,100,150,22,394,125,1,2,A,U,B,X,0,05.0.6.0,win,12317,20:04:32,42,axcpt,trialselector,0,0,175,25,25,25,100,150,22,395,125,1,2,A,U,B,X,0,05.0.6.0,win,12317,20:04:32,42,axcpt,AX,440,2,175,25,25,25,100,150,22,396,126,1,2,A,P,L,X,A,15.0.6.0,win,12317,20:04:32,42,axcpt,ISI_probe,300,0,175,25,25,25,100,150,22,397,126,1,2,A,P,L,X,0,05.0.6.0,win,12317,20:04:32,42,axcpt,trialselector,0,0,175,25,25,25,100,150,22,398,126,1,2,A,P,L,X,0,05.0.6.0,win,12317,20:04:32,42,axcpt,AX,269,2,175,25,25,25,100,150,22,399,127,1,2,A,S,Z,X,A,15.0.6.0,win,12317,20:04:32,42,axcpt,ISI_probe,300,0,175,25,25,25,100,150,22,400,127,1,2,A,S,Z,X,0,05.0.6.0,win,12317,20:04:32,42,axcpt,trialselector,0,0,175,25,25,25,100,150,22,401,127,1,2,A,S,Z,X,0,05.0.6.0,win,12317,20:04:32,42,axcpt,AX,296,2,175,25,25,25,100,150,22,402,128,1,2,A,Q,S,X,A,15.0.6.0,win,12317,20:04:32,42,axcpt,ISI_probe,300,0,175,25,25,25,100,150,22,403,128,1,2,A,Q,S,X,0,05.0.6.0,win,12317,20:04:32,42,axcpt,trialselector,0,0,175,25,25,25,100,150,22,404,128,2,2,A,Q,S,X,0,05.0.6.0,win,12317,20:04:32,42,axcpt,AY,966,3,175,25,25,25,100,150,22,405,129,2,2,A,V,S,Z,A,15.0.6.0,win,12317,20:04:32,42,axcpt,ISI_probe,234,0,175,25,25,25,100,150,22,406,129,2,2,A,V,S,Z,0,05.0.6.0,win,12317,20:04:32,42,axcpt,trialselector,0,0,175,25,25,25,100,150,22,407,129,1,2,A,V,S,Z,0,05.0.6.0,win,12317,20:04:32,42,axcpt,AX,269,2,175,25,25,25,100,150,22,408,130,1,2,A,P,I,X,A,15.0.6.0,win,12317,20:04:32,42,axcpt,ISI_probe,300,0,175,25,25,25,100,150,22,409,130,1,2,A,P,I,X,0,05.0.6.0,win,12317,20:04:32,42,axcpt,trialselector,0,0,175,25,25,25,100,150,22,410,130,1,2,A,P,I,X,0,05.0.6.0,win,12317,20:04:32,42,axcpt,AX,416,2,175,25,25,25,100,150,22,411,131,1,2,A,S,I,X,A,15.0.6.0,win,12317,20:04:32,42,axcpt,ISI_probe,300,0,175,25,25,25,100,150,22,412,131,1,2,A,S,I,X,0,05.0.6.0,win,12317,20:04:32,42,axcpt,trialselector,0,0,175,25,25,25,100,150,22,413,131,1,2,A,S,I,X,0,05.0.6.0,win,12317,20:04:32,42,axcpt,AX,232,2,175,25,25,25,100,150,22,414,132,1,2,A,E,L,X,A,15.0.6.0,win,12317,20:04:32,42,axcpt,ISI_probe,300,0,175,25,25,25,100,150,22,415,132,1,2,A,E,L,X,0,05.0.6.0,win,12317,20:04:32,42,axcpt,trialselector,0,0,175,25,25,25,100,150,22,416,132,1,2,A,E,L,X,0,05.0.6.0,win,12317,20:04:32,42,axcpt,AX,375,2,175,25,25,25,100,150,22,417,133,1,2,A,B,C,X,A,15.0.6.0,win,12317,20:04:32,42,axcpt,ISI_probe,300,0,175,25,25,25,100,150,22,418,133,1,2,A,B,C,X,0,05.0.6.0,win,12317,20:04:32,42,axcpt,trialselector,0,0,175,25,25,25,100,150,22,419,133,1,2,A,B,C,X,0,05.0.6.0,win,12317,20:04:32,42,axcpt,AX,1016,2,175,25,25,25,100,150,22,420,134,1,2,A,I,G,X,A,15.0.6.0,win,12317,20:04:32,42,axcpt,ISI_probe,184,0,175,25,25,25,100,150,22,421,134,1,2,A,I,G,X,0,05.0.6.0,win,12317,20:04:32,42,axcpt,trialselector,0,0,175,25,25,25,100,150,22,422,134,1,2,A,I,G,X,0,05.0.6.0,win,12317,20:04:32,42,axcpt,AX,319,2,175,25,25,25,100,150,22,423,135,1,2,A,M,E,X,A,15.0.6.0,win,12317,20:04:32,42,axcpt,ISI_probe,300,0,175,25,25,25,100,150,22,424,135,1,2,A,M,E,X,0,05.0.6.0,win,12317,20:04:32,42,axcpt,trialselector,0,0,175,25,25,25,100,150,22,425,135,1,2,A,M,E,X,0,05.0.6.0,win,12317,20:04:32,42,axcpt,AX,524,2,175,25,25,25,100,150,22,426,136,1,2,A,I,T,X,A,15.0.6.0,win,12317,20:04:32,42,axcpt,ISI_probe,300,0,175,25,25,25,100,150,22,427,136,1,2,A,I,T,X,0,05.0.6.0,win,12317,20:04:32,42,axcpt,trialselector,0,0,175,25,25,25,100,150,22,428,136,2,2,A,I,T,X,0,05.0.6.0,win,12317,20:04:32,42,axcpt,AY,601,3,175,25,25,25,100,150,22,429,137,2,2,A,C,I,N,A,15.0.6.0,win,12317,20:04:32,42,axcpt,ISI_probe,300,0,175,25,25,25,100,150,22,430,137,2,2,A,C,I,N,0,05.0.6.0,win,12317,20:04:32,42,axcpt,trialselector,0,0,175,25,25,25,100,150,22,431,137,1,2,A,C,I,N,0,05.0.6.0,win,12317,20:04:32,42,axcpt,AX,581,2,175,25,25,25,100,150,22,432,138,1,2,A,F,L,X,A,15.0.6.0,win,12317,20:04:32,42,axcpt,ISI_probe,300,0,175,25,25,25,100,150,22,433,138,1,2,A,F,L,X,0,05.0.6.0,win,12317,20:04:32,42,axcpt,trialselector,0,0,175,25,25,25,100,150,22,434,138,1,2,A,F,L,X,0,05.0.6.0,win,12317,20:04:32,42,axcpt,AX,1200,0,175,25,25,25,100,150,22,435,139,1,2,A,Q,O,X,A,05.0.6.0,win,12317,20:04:32,42,axcpt,ISI_probe,0,0,175,25,25,25,100,150,22,436,139,1,2,A,Q,O,X,0,05.0.6.0,win,12317,20:04:32,42,axcpt,trialselector,0,0,175,25,25,25,100,150,22,437,139,1,2,A,Q,O,X,0,05.0.6.0,win,12317,20:04:32,42,axcpt,AX,595,2,175,25,25,25,100,150,22,438,140,1,2,A,L,F,X,A,15.0.6.0,win,12317,20:04:32,42,axcpt,ISI_probe,300,0,175,25,25,25,100,150,22,439,140,1,2,A,L,F,X,0,05.0.6.0,win,12317,20:04:32,42,axcpt,trialselector,0,0,175,25,25,25,100,150,22,440,140,4,2,A,L,F,X,0,05.0.6.0,win,12317,20:04:32,42,axcpt,BY,632,3,175,25,25,25,100,150,22,441,141,4,2,M,J,S,P,M,15.0.6.0,win,12317,20:04:32,42,axcpt,ISI_probe,300,0,175,25,25,25,100,150,22,442,141,4,2,M,J,S,P,0,05.0.6.0,win,12317,20:04:32,42,axcpt,trialselector,0,0,175,25,25,25,100,150,22,443,141,1,2,M,J,S,P,0,05.0.6.0,win,12317,20:04:32,42,axcpt,AX,497,2,175,25,25,25,100,150,22,444,142,1,2,A,M,S,X,A,15.0.6.0,win,12317,20:04:32,42,axcpt,ISI_probe,300,0,175,25,25,25,100,150,22,445,142,1,2,A,M,S,X,0,05.0.6.0,win,12317,20:04:32,42,axcpt,trialselector,0,0,175,25,25,25,100,150,22,446,142,1,2,A,M,S,X,0,05.0.6.0,win,12317,20:04:32,42,axcpt,AX,486,2,175,25,25,25,100,150,22,447,143,1,2,A,F,I,X,A,15.0.6.0,win,12317,20:04:32,42,axcpt,ISI_probe,300,0,175,25,25,25,100,150,22,448,143,1,2,A,F,I,X,0,05.0.6.0,win,12317,20:04:32,42,axcpt,trialselector,0,0,175,25,25,25,100,150,22,449,143,1,2,A,F,I,X,0,05.0.6.0,win,12317,20:04:32,42,axcpt,AX,393,2,175,25,25,25,100,150,22,450,144,1,2,A,T,R,X,A,15.0.6.0,win,12317,20:04:32,42,axcpt,ISI_probe,300,0,175,25,25,25,100,150,22,451,144,1,2,A,T,R,X,0,05.0.6.0,win,12317,20:04:32,42,axcpt,trialselector,0,0,175,25,25,25,100,150,22,452,144,4,2,A,T,R,X,0,05.0.6.0,win,12317,20:04:32,42,axcpt,BY,826,3,175,25,25,25,100,150,22,453,145,4,2,C,R,G,T,C,15.0.6.0,win,12317,20:04:32,42,axcpt,ISI_probe,300,0,175,25,25,25,100,150,22,454,145,4,2,C,R,G,T,0,05.0.6.0,win,12317,20:04:32,42,axcpt,trialselector,0,0,175,25,25,25,100,150,22,455,145,3,2,C,R,G,T,0,05.0.6.0,win,12317,20:04:32,42,axcpt,BX,640,2,175,25,25,25,100,150,22,456,146,3,2,I,C,D,X,I,05.0.6.0,win,12317,20:04:32,42,axcpt,ISI_probe,300,0,175,25,25,25,100,150,22,457,146,3,2,I,C,D,X,0,05.0.6.0,win,12317,20:04:32,42,axcpt,trialselector,0,0,175,25,25,25,100,150,22,458,146,3,2,I,C,D,X,0,05.0.6.0,win,12317,20:04:32,42,axcpt,BX,304,2,175,25,25,25,100,150,22,459,147,3,2,H,I,V,X,H,05.0.6.0,win,12317,20:04:32,42,axcpt,ISI_probe,300,0,175,25,25,25,100,150,22,460,147,3,2,H,I,V,X,0,05.0.6.0,win,12317,20:04:32,42,axcpt,trialselector,0,0,175,25,25,25,100,150,22,461,147,1,2,H,I,V,X,0,05.0.6.0,win,12317,20:04:32,42,axcpt,AX,606,3,175,25,25,25,100,150,22,462,148,1,2,A,C,S,X,A,05.0.6.0,win,12317,20:04:32,42,axcpt,ISI_probe,300,0,175,25,25,25,100,150,22,463,148,1,2,A,C,S,X,0,05.0.6.0,win,12317,20:04:32,42,axcpt,trialselector,0,0,175,25,25,25,100,150,22,464,148,1,2,A,C,S,X,0,05.0.6.0,win,12317,20:04:32,42,axcpt,AX,480,2,175,25,25,25,100,150,22,465,149,1,2,A,L,G,X,A,15.0.6.0,win,12317,20:04:32,42,axcpt,ISI_probe,300,0,175,25,25,25,100,150,22,466,149,1,2,A,L,G,X,0,05.0.6.0,win,12317,20:04:32,42,axcpt,trialselector,0,0,175,25,25,25,100,150,22,467,149,1,2,A,L,G,X,0,05.0.6.0,win,12317,20:04:32,42,axcpt,AX,246,2,175,25,25,25,100,150,22,468,150,1,2,A,Q,G,X,A,15.0.6.0,win,12317,20:04:32,42,axcpt,ISI_probe,300,0,175,25,25,25,100,150,22,469,150,1,2,A,Q,G,X,0,05.0.6.0,win,12317,20:04:32,42,axcpt,trialselector,0,0,175,25,25,25,100,150,22,470,150,1,2,A,Q,G,X,0,05.0.6.0,win,12317,20:04:32,42,axcpt,AX,241,2,175,25,25,25,100,150,22,471,151,1,3,A,L,H,X,A,15.0.6.0,win,12317,20:04:32,42,axcpt,ISI_probe,300,0,175,25,25,25,100,150,22,472,151,1,3,A,L,H,X,0,05.0.6.0,win,12317,20:04:32,42,axcpt,trialselector,0,0,175,25,25,25,100,150,22,473,151,2,3,A,L,H,X,0,05.0.6.0,win,12317,20:04:32,42,axcpt,AY,436,2,175,25,25,25,100,150,22,474,152,2,3,A,R,Q,L,A,05.0.6.0,win,12317,20:04:32,42,axcpt,ISI_probe,300,0,175,25,25,25,100,150,22,475,152,2,3,A,R,Q,L,0,05.0.6.0,win,12317,20:04:32,42,axcpt,trialselector,0,0,175,25,25,25,100,150,22,476,152,4,3,A,R,Q,L,0,05.0.6.0,win,12317,20:04:32,42,axcpt,BY,487,3,175,25,25,25,100,150,22,477,153,4,3,F,V,I,P,F,15.0.6.0,win,12317,20:04:32,42,axcpt,ISI_probe,300,0,175,25,25,25,100,150,22,478,153,4,3,F,V,I,P,0,05.0.6.0,win,12317,20:04:32,42,axcpt,trialselector,0,0,175,25,25,25,100,150,22,479,153,4,3,F,V,I,P,0,05.0.6.0,win,12317,20:04:32,42,axcpt,BY,440,3,175,25,25,25,100,150,22,480,154,4,3,L,H,R,T,L,15.0.6.0,win,12317,20:04:32,42,axcpt,ISI_probe,300,0,175,25,25,25,100,150,22,481,154,4,3,L,H,R,T,0,05.0.6.0,win,12317,20:04:32,42,axcpt,trialselector,0,0,175,25,25,25,100,150,22,482,154,3,3,L,H,R,T,0,05.0.6.0,win,12317,20:04:32,42,axcpt,BX,488,2,175,25,25,25,100,150,22,483,155,3,3,F,B,Z,X,F,05.0.6.0,win,12317,20:04:32,42,axcpt,ISI_probe,300,0,175,25,25,25,100,150,22,484,155,3,3,F,B,Z,X,0,05.0.6.0,win,12317,20:04:32,42,axcpt,trialselector,0,0,175,25,25,25,100,150,22,485,155,1,3,F,B,Z,X,0,05.0.6.0,win,12317,20:04:32,42,axcpt,AX,493,2,175,25,25,25,100,150,22,486,156,1,3,A,I,H,X,A,15.0.6.0,win,12317,20:04:32,42,axcpt,ISI_probe,300,0,175,25,25,25,100,150,22,487,156,1,3,A,I,H,X,0,05.0.6.0,win,12317,20:04:32,42,axcpt,trialselector,0,0,175,25,25,25,100,150,22,488,156,1,3,A,I,H,X,0,05.0.6.0,win,12317,20:04:32,42,axcpt,AX,455,2,175,25,25,25,100,150,22,489,157,1,3,A,E,O,X,A,15.0.6.0,win,12317,20:04:32,42,axcpt,ISI_probe,300,0,175,25,25,25,100,150,22,490,157,1,3,A,E,O,X,0,05.0.6.0,win,12317,20:04:32,42,axcpt,trialselector,0,0,175,25,25,25,100,150,22,491,157,4,3,A,E,O,X,0,05.0.6.0,win,12317,20:04:32,42,axcpt,BY,514,3,175,25,25,25,100,150,22,492,158,4,3,J,H,F,U,J,15.0.6.0,win,12317,20:04:32,42,axcpt,ISI_probe,300,0,175,25,25,25,100,150,22,493,158,4,3,J,H,F,U,0,05.0.6.0,win,12317,20:04:32,42,axcpt,trialselector,0,0,175,25,25,25,100,150,22,494,158,1,3,J,H,F,U,0,05.0.6.0,win,12317,20:04:32,42,axcpt,AX,523,3,175,25,25,25,100,150,22,495,159,1,3,A,G,H,X,A,05.0.6.0,win,12317,20:04:32,42,axcpt,ISI_probe,300,0,175,25,25,25,100,150,22,496,159,1,3,A,G,H,X,0,05.0.6.0,win,12317,20:04:32,42,axcpt,trialselector,0,0,175,25,25,25,100,150,22,497,159,1,3,A,G,H,X,0,05.0.6.0,win,12317,20:04:32,42,axcpt,AX,360,2,175,25,25,25,100,150,22,498,160,1,3,A,S,Q,X,A,15.0.6.0,win,12317,20:04:32,42,axcpt,ISI_probe,300,0,175,25,25,25,100,150,22,499,160,1,3,A,S,Q,X,0,05.0.6.0,win,12317,20:04:32,42,axcpt,trialselector,0,0,175,25,25,25,100,150,22,500,160,1,3,A,S,Q,X,0,05.0.6.0,win,12317,20:04:32,42,axcpt,AX,265,2,175,25,25,25,100,150,22,501,161,1,3,A,Z,B,X,A,15.0.6.0,win,12317,20:04:32,42,axcpt,ISI_probe,300,0,175,25,25,25,100,150,22,502,161,1,3,A,Z,B,X,0,05.0.6.0,win,12317,20:04:32,42,axcpt,trialselector,0,0,175,25,25,25,100,150,22,503,161,1,3,A,Z,B,X,0,05.0.6.0,win,12317,20:04:32,42,axcpt,AX,244,2,175,25,25,25,100,150,22,504,162,1,3,A,M,R,X,A,15.0.6.0,win,12317,20:04:32,42,axcpt,ISI_probe,300,0,175,25,25,25,100,150,22,505,162,1,3,A,M,R,X,0,05.0.6.0,win,12317,20:04:32,42,axcpt,trialselector,0,0,175,25,25,25,100,150,22,506,162,1,3,A,M,R,X,0,05.0.6.0,win,12317,20:04:32,42,axcpt,AX,206,2,175,25,25,25,100,150,22,507,163,1,3,A,O,T,X,A,15.0.6.0,win,12317,20:04:32,42,axcpt,ISI_probe,300,0,175,25,25,25,100,150,22,508,163,1,3,A,O,T,X,0,05.0.6.0,win,12317,20:04:32,42,axcpt,trialselector,0,0,175,25,25,25,100,150,22,509,163,2,3,A,O,T,X,0,05.0.6.0,win,12317,20:04:32,42,axcpt,AY,220,2,175,25,25,25,100,150,22,510,164,2,3,A,F,S,Z,A,05.0.6.0,win,12317,20:04:32,42,axcpt,ISI_probe,300,0,175,25,25,25,100,150,22,511,164,2,3,A,F,S,Z,0,05.0.6.0,win,12317,20:04:32,42,axcpt,trialselector,0,0,175,25,25,25,100,150,22,512,164,2,3,A,F,S,Z,0,05.0.6.0,win,12317,20:04:32,42,axcpt,AY,622,3,175,25,25,25,100,150,22,513,165,2,3,A,D,B,U,A,15.0.6.0,win,12317,20:04:32,42,axcpt,ISI_probe,300,0,175,25,25,25,100,150,22,514,165,2,3,A,D,B,U,0,05.0.6.0,win,12317,20:04:32,42,axcpt,trialselector,0,0,175,25,25,25,100,150,22,515,165,1,3,A,D,B,U,0,05.0.6.0,win,12317,20:04:32,42,axcpt,AX,431,2,175,25,25,25,100,150,22,516,166,1,3,A,R,Z,X,A,15.0.6.0,win,12317,20:04:32,42,axcpt,ISI_probe,300,0,175,25,25,25,100,150,22,517,166,1,3,A,R,Z,X,0,05.0.6.0,win,12317,20:04:32,42,axcpt,trialselector,0,0,175,25,25,25,100,150,22,518,166,1,3,A,R,Z,X,0,05.0.6.0,win,12317,20:04:32,42,axcpt,AX,340,2,175,25,25,25,100,150,22,519,167,1,3,A,L,M,X,A,15.0.6.0,win,12317,20:04:32,42,axcpt,ISI_probe,300,0,175,25,25,25,100,150,22,520,167,1,3,A,L,M,X,0,05.0.6.0,win,12317,20:04:32,42,axcpt,trialselector,0,0,175,25,25,25,100,150,22,521,167,4,3,A,L,M,X,0,05.0.6.0,win,12317,20:04:32,42,axcpt,BY,877,3,175,25,25,25,100,150,22,522,168,4,3,O,C,D,Q,O,15.0.6.0,win,12317,20:04:32,42,axcpt,ISI_probe,300,0,175,25,25,25,100,150,22,523,168,4,3,O,C,D,Q,0,05.0.6.0,win,12317,20:04:32,42,axcpt,trialselector,0,0,175,25,25,25,100,150,22,524,168,3,3,O,C,D,Q,0,05.0.6.0,win,12317,20:04:32,42,axcpt,BX,711,2,175,25,25,25,100,150,22,525,169,3,3,N,J,V,X,N,05.0.6.0,win,12317,20:04:32,42,axcpt,ISI_probe,300,0,175,25,25,25,100,150,22,526,169,3,3,N,J,V,X,0,05.0.6.0,win,12317,20:04:32,42,axcpt,trialselector,0,0,175,25,25,25,100,150,22,527,169,1,3,N,J,V,X,0,05.0.6.0,win,12317,20:04:32,42,axcpt,AX,474,2,175,25,25,25,100,150,22,528,170,1,3,A,Z,M,X,A,15.0.6.0,win,12317,20:04:32,42,axcpt,ISI_probe,300,0,175,25,25,25,100,150,22,529,170,1,3,A,Z,M,X,0,05.0.6.0,win,12317,20:04:32,42,axcpt,trialselector,0,0,175,25,25,25,100,150,22,530,170,4,3,A,Z,M,X,0,05.0.6.0,win,12317,20:04:32,42,axcpt,BY,541,3,175,25,25,25,100,150,22,531,171,4,3,T,O,D,B,T,15.0.6.0,win,12317,20:04:32,42,axcpt,ISI_probe,300,0,175,25,25,25,100,150,22,532,171,4,3,T,O,D,B,0,05.0.6.0,win,12317,20:04:32,42,axcpt,trialselector,0,0,175,25,25,25,100,150,22,533,171,1,3,T,O,D,B,0,05.0.6.0,win,12317,20:04:32,42,axcpt,AX,547,2,175,25,25,25,100,150,22,534,172,1,3,A,J,D,X,A,15.0.6.0,win,12317,20:04:32,42,axcpt,ISI_probe,300,0,175,25,25,25,100,150,22,535,172,1,3,A,J,D,X,0,05.0.6.0,win,12317,20:04:32,42,axcpt,trialselector,0,0,175,25,25,25,100,150,22,536,172,1,3,A,J,D,X,0,05.0.6.0,win,12317,20:04:32,42,axcpt,AX,539,2,175,25,25,25,100,150,22,537,173,1,3,A,Q,H,X,A,15.0.6.0,win,12317,20:04:32,42,axcpt,ISI_probe,300,0,175,25,25,25,100,150,22,538,173,1,3,A,Q,H,X,0,05.0.6.0,win,12317,20:04:32,42,axcpt,trialselector,0,0,175,25,25,25,100,150,22,539,173,1,3,A,Q,H,X,0,05.0.6.0,win,12317,20:04:32,42,axcpt,AX,242,2,175,25,25,25,100,150,22,540,174,1,3,A,R,N,X,A,15.0.6.0,win,12317,20:04:32,42,axcpt,ISI_probe,300,0,175,25,25,25,100,150,22,541,174,1,3,A,R,N,X,0,05.0.6.0,win,12317,20:04:32,42,axcpt,trialselector,0,0,175,25,25,25,100,150,22,542,174,1,3,A,R,N,X,0,05.0.6.0,win,12317,20:04:32,42,axcpt,AX,4,2,175,25,25,25,100,150,22,543,175,1,3,A,P,J,X,A,15.0.6.0,win,12317,20:04:32,42,axcpt,ISI_probe,300,0,175,25,25,25,100,150,22,544,175,1,3,A,P,J,X,0,05.0.6.0,win,12317,20:04:32,42,axcpt,trialselector,0,0,175,25,25,25,100,150,22,545,175,1,3,A,P,J,X,0,05.0.6.0,win,12317,20:04:32,42,axcpt,AX,237,2,175,25,25,25,100,150,22,546,176,1,3,A,M,S,X,A,15.0.6.0,win,12317,20:04:32,42,axcpt,ISI_probe,300,0,175,25,25,25,100,150,22,547,176,1,3,A,M,S,X,0,05.0.6.0,win,12317,20:04:32,42,axcpt,trialselector,0,0,175,25,25,25,100,150,22,548,176,1,3,A,M,S,X,0,05.0.6.0,win,12317,20:04:32,42,axcpt,AX,321,2,175,25,25,25,100,150,22,549,177,1,3,A,G,F,X,A,15.0.6.0,win,12317,20:04:32,42,axcpt,ISI_probe,300,0,175,25,25,25,100,150,22,550,177,1,3,A,G,F,X,0,05.0.6.0,win,12317,20:04:32,42,axcpt,trialselector,0,0,175,25,25,25,100,150,22,551,177,3,3,A,G,F,X,0,05.0.6.0,win,12317,20:04:32,42,axcpt,BX,287,2,175,25,25,25,100,150,22,552,178,3,3,D,Z,E,X,D,05.0.6.0,win,12317,20:04:32,42,axcpt,ISI_probe,300,0,175,25,25,25,100,150,22,553,178,3,3,D,Z,E,X,0,05.0.6.0,win,12317,20:04:32,42,axcpt,trialselector,0,0,175,25,25,25,100,150,22,554,178,1,3,D,Z,E,X,0,05.0.6.0,win,12317,20:04:32,42,axcpt,AX,432,2,175,25,25,25,100,150,22,555,179,1,3,A,Q,V,X,A,15.0.6.0,win,12317,20:04:32,42,axcpt,ISI_probe,300,0,175,25,25,25,100,150,22,556,179,1,3,A,Q,V,X,0,05.0.6.0,win,12317,20:04:32,42,axcpt,trialselector,0,0,175,25,25,25,100,150,22,557,179,1,3,A,Q,V,X,0,05.0.6.0,win,12317,20:04:32,42,axcpt,AX,412,2,175,25,25,25,100,150,22,558,180,1,3,A,O,S,X,A,15.0.6.0,win,12317,20:04:32,42,axcpt,ISI_probe,300,0,175,25,25,25,100,150,22,559,180,1,3,A,O,S,X,0,05.0.6.0,win,12317,20:04:32,42,axcpt,trialselector,0,0,175,25,25,25,100,150,22,560,180,1,3,A,O,S,X,0,05.0.6.0,win,12317,20:04:32,42,axcpt,AX,376,2,175,25,25,25,100,150,22,561,181,1,3,A,U,C,X,A,15.0.6.0,win,12317,20:04:32,42,axcpt,ISI_probe,300,0,175,25,25,25,100,150,22,562,181,1,3,A,U,C,X,0,05.0.6.0,win,12317,20:04:32,42,axcpt,trialselector,0,0,175,25,25,25,100,150,22,563,181,1,3,A,U,C,X,0,05.0.6.0,win,12317,20:04:32,42,axcpt,AX,444,2,175,25,25,25,100,150,22,564,182,1,3,A,Q,S,X,A,15.0.6.0,win,12317,20:04:32,42,axcpt,ISI_probe,300,0,175,25,25,25,100,150,22,565,182,1,3,A,Q,S,X,0,05.0.6.0,win,12317,20:04:32,42,axcpt,trialselector,0,0,175,25,25,25,100,150,22,566,182,1,3,A,Q,S,X,0,05.0.6.0,win,12317,20:04:32,42,axcpt,AX,387,2,175,25,25,25,100,150,22,567,183,1,3,A,D,E,X,A,15.0.6.0,win,12317,20:04:32,42,axcpt,ISI_probe,300,0,175,25,25,25,100,150,22,568,183,1,3,A,D,E,X,0,05.0.6.0,win,12317,20:04:32,42,axcpt,trialselector,0,0,175,25,25,25,100,150,22,569,183,1,3,A,D,E,X,0,05.0.6.0,win,12317,20:04:32,42,axcpt,AX,343,2,175,25,25,25,100,150,22,570,184,1,3,A,P,N,X,A,15.0.6.0,win,12317,20:04:32,42,axcpt,ISI_probe,300,0,175,25,25,25,100,150,22,571,184,1,3,A,P,N,X,0,05.0.6.0,win,12317,20:04:32,42,axcpt,trialselector,0,0,175,25,25,25,100,150,22,572,184,1,3,A,P,N,X,0,05.0.6.0,win,12317,20:04:32,42,axcpt,AX,238,2,175,25,25,25,100,150,22,573,185,1,3,A,B,Q,X,A,15.0.6.0,win,12317,20:04:32,42,axcpt,ISI_probe,300,0,175,25,25,25,100,150,22,574,185,1,3,A,B,Q,X,0,05.0.6.0,win,12317,20:04:32,42,axcpt,trialselector,0,0,175,25,25,25,100,150,22,575,185,4,3,A,B,Q,X,0,05.0.6.0,win,12317,20:04:32,42,axcpt,BY,652,3,175,25,25,25,100,150,22,576,186,4,3,D,G,Z,L,D,15.0.6.0,win,12317,20:04:32,42,axcpt,ISI_probe,300,0,175,25,25,25,100,150,22,577,186,4,3,D,G,Z,L,0,05.0.6.0,win,12317,20:04:32,42,axcpt,trialselector,0,0,175,25,25,25,100,150,22,578,186,2,3,D,G,Z,L,0,05.0.6.0,win,12317,20:04:32,42,axcpt,AY,547,3,175,25,25,25,100,150,22,579,187,2,3,A,G,J,T,A,15.0.6.0,win,12317,20:04:32,42,axcpt,ISI_probe,300,0,175,25,25,25,100,150,22,580,187,2,3,A,G,J,T,0,05.0.6.0,win,12317,20:04:32,42,axcpt,trialselector,0,0,175,25,25,25,100,150,22,581,187,1,3,A,G,J,T,0,05.0.6.0,win,12317,20:04:32,42,axcpt,AX,734,2,175,25,25,25,100,150,22,582,188,1,3,A,S,Q,X,A,15.0.6.0,win,12317,20:04:32,42,axcpt,ISI_probe,300,0,175,25,25,25,100,150,22,583,188,1,3,A,S,Q,X,0,05.0.6.0,win,12317,20:04:32,42,axcpt,trialselector,0,0,175,25,25,25,100,150,22,584,188,1,3,A,S,Q,X,0,05.0.6.0,win,12317,20:04:32,42,axcpt,AX,412,2,175,25,25,25,100,150,22,585,189,1,3,A,S,I,X,A,15.0.6.0,win,12317,20:04:32,42,axcpt,ISI_probe,300,0,175,25,25,25,100,150,22,586,189,1,3,A,S,I,X,0,05.0.6.0,win,12317,20:04:32,42,axcpt,trialselector,0,0,175,25,25,25,100,150,22,587,189,1,3,A,S,I,X,0,05.0.6.0,win,12317,20:04:32,42,axcpt,AX,672,2,175,25,25,25,100,150,22,588,190,1,3,A,N,E,X,A,15.0.6.0,win,12317,20:04:32,42,axcpt,ISI_probe,300,0,175,25,25,25,100,150,22,589,190,1,3,A,N,E,X,0,05.0.6.0,win,12317,20:04:32,42,axcpt,trialselector,0,0,175,25,25,25,100,150,22,590,190,1,3,A,N,E,X,0,05.0.6.0,win,12317,20:04:32,42,axcpt,AX,410,2,175,25,25,25,100,150,22,591,191,1,3,A,J,B,X,A,15.0.6.0,win,12317,20:04:32,42,axcpt,ISI_probe,300,0,175,25,25,25,100,150,22,592,191,1,3,A,J,B,X,0,05.0.6.0,win,12317,20:04:32,42,axcpt,trialselector,0,0,175,25,25,25,100,150,22,593,191,1,3,A,J,B,X,0,05.0.6.0,win,12317,20:04:32,42,axcpt,AX,680,2,175,25,25,25,100,150,22,594,192,1,3,A,N,R,X,A,15.0.6.0,win,12317,20:04:32,42,axcpt,ISI_probe,300,0,175,25,25,25,100,150,22,595,192,1,3,A,N,R,X,0,05.0.6.0,win,12317,20:04:32,42,axcpt,trialselector,0,0,175,25,25,25,100,150,22,596,192,1,3,A,N,R,X,0,05.0.6.0,win,12317,20:04:32,42,axcpt,AX,978,2,175,25,25,25,100,150,22,597,193,1,3,A,O,Q,X,A,15.0.6.0,win,12317,20:04:32,42,axcpt,ISI_probe,222,0,175,25,25,25,100,150,22,598,193,1,3,A,O,Q,X,0,05.0.6.0,win,12317,20:04:32,42,axcpt,trialselector,0,0,175,25,25,25,100,150,22,599,193,4,3,A,O,Q,X,0,05.0.6.0,win,12317,20:04:32,42,axcpt,BY,556,3,175,25,25,25,100,150,22,600,194,4,3,G,E,O,Z,G,15.0.6.0,win,12317,20:04:32,42,axcpt,ISI_probe,300,0,175,25,25,25,100,150,22,601,194,4,3,G,E,O,Z,0,05.0.6.0,win,12317,20:04:32,42,axcpt,trialselector,0,0,175,25,25,25,100,150,22,602,194,4,3,G,E,O,Z,0,05.0.6.0,win,12317,20:04:32,42,axcpt,BY,526,3,175,25,25,25,100,150,22,603,195,4,3,Q,Z,U,P,Q,15.0.6.0,win,12317,20:04:32,42,axcpt,ISI_probe,300,0,175,25,25,25,100,150,22,604,195,4,3,Q,Z,U,P,0,05.0.6.0,win,12317,20:04:32,42,axcpt,trialselector,0,0,175,25,25,25,100,150,22,605,195,4,3,Q,Z,U,P,0,05.0.6.0,win,12317,20:04:32,42,axcpt,BY,473,3,175,25,25,25,100,150,22,606,196,4,3,D,S,E,F,D,15.0.6.0,win,12317,20:04:32,42,axcpt,ISI_probe,300,0,175,25,25,25,100,150,22,607,196,4,3,D,S,E,F,0,05.0.6.0,win,12317,20:04:32,42,axcpt,trialselector,0,0,175,25,25,25,100,150,22,608,196,3,3,D,S,E,F,0,05.0.6.0,win,12317,20:04:32,42,axcpt,BX,586,2,175,25,25,25,100,150,22,609,197,3,3,R,Q,B,X,R,05.0.6.0,win,12317,20:04:32,42,axcpt,ISI_probe,300,0,175,25,25,25,100,150,22,610,197,3,3,R,Q,B,X,0,05.0.6.0,win,12317,20:04:32,42,axcpt,trialselector,0,0,175,25,25,25,100,150,22,611,197,1,3,R,Q,B,X,0,05.0.6.0,win,12317,20:04:32,42,axcpt,AX,597,2,175,25,25,25,100,150,22,612,198,1,3,A,H,J,X,A,15.0.6.0,win,12317,20:04:32,42,axcpt,ISI_probe,300,0,175,25,25,25,100,150,22,613,198,1,3,A,H,J,X,0,05.0.6.0,win,12317,20:04:32,42,axcpt,trialselector,0,0,175,25,25,25,100,150,22,614,198,4,3,A,H,J,X,0,05.0.6.0,win,12317,20:04:32,42,axcpt,BY,552,3,175,25,25,25,100,150,22,615,199,4,3,E,P,U,O,E,15.0.6.0,win,12317,20:04:32,42,axcpt,ISI_probe,300,0,175,25,25,25,100,150,22,616,199,4,3,E,P,U,O,0,05.0.6.0,win,12317,20:04:32,42,axcpt,trialselector,0,0,175,25,25,25,100,150,22,617,199,1,3,E,P,U,O,0,05.0.6.0,win,12317,20:04:32,42,axcpt,AX,894,2,175,25,25,25,100,150,22,618,200,1,3,A,R,L,X,A,15.0.6.0,win,12317,20:04:32,42,axcpt,ISI_probe,300,0,175,25,25,25,100,150,22,619,200,1,3,A,R,L,X,0,05.0.6.0,win,12317,20:04:32,42,axcpt,trialselector,0,0,175,25,25,25,100,150,22,620,200,1,3,A,R,L,X,0,05.0.6.0,win,12317,20:04:32,42,axcpt,AX,492,2,175,25,25,25,100,150,22,621,201,1,3,A,F,O,X,A,15.0.6.0,win,12317,20:04:32,42,axcpt,ISI_probe,300,0,175,25,25,25,100,150,22,622,201,1,3,A,F,O,X,0,05.0.6.0,win,12317,20:04:32,42,axcpt,trialselector,0,0,175,25,25,25,100,150,22,623,201,1,3,A,F,O,X,0,05.0.6.0,win,12317,20:04:32,42,axcpt,AX,661,2,175,25,25,25,100,150,22,624,202,1,3,A,E,L,X,A,15.0.6.0,win,12317,20:04:32,42,axcpt,ISI_probe,300,0,175,25,25,25,100,150,22,625,202,1,3,A,E,L,X,0,05.0.6.0,win,12317,20:04:32,42,axcpt,trialselector,0,0,175,25,25,25,100,150,22,626,202,1,3,A,E,L,X,0,05.0.6.0,win,12317,20:04:32,42,axcpt,AX,320,2,175,25,25,25,100,150,22,627,203,1,3,A,D,V,X,A,15.0.6.0,win,12317,20:04:32,42,axcpt,ISI_probe,300,0,175,25,25,25,100,150,22,628,203,1,3,A,D,V,X,0,05.0.6.0,win,12317,20:04:32,42,axcpt,trialselector,0,0,175,25,25,25,100,150,22,629,203,1,3,A,D,V,X,0,05.0.6.0,win,12317,20:04:32,42,axcpt,AX,499,2,175,25,25,25,100,150,22,630,204,1,3,A,I,C,X,A,15.0.6.0,win,12317,20:04:32,42,axcpt,ISI_probe,300,0,175,25,25,25,100,150,22,631,204,1,3,A,I,C,X,0,05.0.6.0,win,12317,20:04:32,42,axcpt,trialselector,0,0,175,25,25,25,100,150,22,632,204,3,3,A,I,C,X,0,05.0.6.0,win,12317,20:04:32,42,axcpt,BX,471,2,175,25,25,25,100,150,22,633,205,3,3,P,D,J,X,P,05.0.6.0,win,12317,20:04:32,42,axcpt,ISI_probe,300,0,175,25,25,25,100,150,22,634,205,3,3,P,D,J,X,0,05.0.6.0,win,12317,20:04:32,42,axcpt,trialselector,0,0,175,25,25,25,100,150,22,635,205,1,3,P,D,J,X,0,05.0.6.0,win,12317,20:04:32,42,axcpt,AX,238,2,175,25,25,25,100,150,22,636,206,1,3,A,J,S,X,A,15.0.6.0,win,12317,20:04:32,42,axcpt,ISI_probe,300,0,175,25,25,25,100,150,22,637,206,1,3,A,J,S,X,0,05.0.6.0,win,12317,20:04:32,42,axcpt,trialselector,0,0,175,25,25,25,100,150,22,638,206,1,3,A,J,S,X,0,05.0.6.0,win,12317,20:04:32,42,axcpt,AX,239,2,175,25,25,25,100,150,22,639,207,1,3,A,J,B,X,A,15.0.6.0,win,12317,20:04:32,42,axcpt,ISI_probe,300,0,175,25,25,25,100,150,22,640,207,1,3,A,J,B,X,0,05.0.6.0,win,12317,20:04:32,42,axcpt,trialselector,0,0,175,25,25,25,100,150,22,641,207,1,3,A,J,B,X,0,05.0.6.0,win,12317,20:04:32,42,axcpt,AX,475,2,175,25,25,25,100,150,22,642,208,1,3,A,F,Q,X,A,15.0.6.0,win,12317,20:04:32,42,axcpt,ISI_probe,300,0,175,25,25,25,100,150,22,643,208,1,3,A,F,Q,X,0,05.0.6.0,win,12317,20:04:32,42,axcpt,trialselector,0,0,175,25,25,25,100,150,22,644,208,2,3,A,F,Q,X,0,05.0.6.0,win,12317,20:04:32,42,axcpt,AY,246,2,175,25,25,25,100,150,22,645,209,2,3,A,H,I,R,A,05.0.6.0,win,12317,20:04:32,42,axcpt,ISI_probe,300,0,175,25,25,25,100,150,22,646,209,2,3,A,H,I,R,0,05.0.6.0,win,12317,20:04:32,42,axcpt,trialselector,0,0,175,25,25,25,100,150,22,647,209,1,3,A,H,I,R,0,05.0.6.0,win,12317,20:04:32,42,axcpt,AX,520,2,175,25,25,25,100,150,22,648,210,1,3,A,R,T,X,A,15.0.6.0,win,12317,20:04:32,42,axcpt,ISI_probe,300,0,175,25,25,25,100,150,22,649,210,1,3,A,R,T,X,0,05.0.6.0,win,12317,20:04:32,42,axcpt,trialselector,0,0,175,25,25,25,100,150,22,650,210,1,3,A,R,T,X,0,05.0.6.0,win,12317,20:04:32,42,axcpt,AX,428,2,175,25,25,25,100,150,22,651,211,1,3,A,D,Q,X,A,15.0.6.0,win,12317,20:04:32,42,axcpt,ISI_probe,300,0,175,25,25,25,100,150,22,652,211,1,3,A,D,Q,X,0,05.0.6.0,win,12317,20:04:32,42,axcpt,trialselector,0,0,175,25,25,25,100,150,22,653,211,3,3,A,D,Q,X,0,05.0.6.0,win,12317,20:04:32,42,axcpt,BX,766,2,175,25,25,25,100,150,22,654,212,3,3,F,R,C,X,F,05.0.6.0,win,12317,20:04:32,42,axcpt,ISI_probe,300,0,175,25,25,25,100,150,22,655,212,3,3,F,R,C,X,0,05.0.6.0,win,12317,20:04:32,42,axcpt,trialselector,0,0,175,25,25,25,100,150,22,656,212,1,3,F,R,C,X,0,05.0.6.0,win,12317,20:04:32,42,axcpt,AX,641,2,175,25,25,25,100,150,22,657,213,1,3,A,R,L,X,A,15.0.6.0,win,12317,20:04:32,42,axcpt,ISI_probe,300,0,175,25,25,25,100,150,22,658,213,1,3,A,R,L,X,0,05.0.6.0,win,12317,20:04:32,42,axcpt,trialselector,0,0,175,25,25,25,100,150,22,659,213,1,3,A,R,L,X,0,05.0.6.0,win,12317,20:04:32,42,axcpt,AX,423,2,175,25,25,25,100,150,22,660,214,1,3,A,L,V,X,A,15.0.6.0,win,12317,20:04:32,42,axcpt,ISI_probe,300,0,175,25,25,25,100,150,22,661,214,1,3,A,L,V,X,0,05.0.6.0,win,12317,20:04:32,42,axcpt,trialselector,0,0,175,25,25,25,100,150,22,662,214,4,3,A,L,V,X,0,05.0.6.0,win,12317,20:04:32,42,axcpt,BY,947,3,175,25,25,25,100,150,22,663,215,4,3,D,N,J,R,D,15.0.6.0,win,12317,20:04:32,42,axcpt,ISI_probe,253,0,175,25,25,25,100,150,22,664,215,4,3,D,N,J,R,0,05.0.6.0,win,12317,20:04:32,42,axcpt,trialselector,0,0,175,25,25,25,100,150,22,665,215,1,3,D,N,J,R,0,05.0.6.0,win,12317,20:04:32,42,axcpt,AX,675,2,175,25,25,25,100,150,22,666,216,1,3,A,D,J,X,A,15.0.6.0,win,12317,20:04:32,42,axcpt,ISI_probe,300,0,175,25,25,25,100,150,22,667,216,1,3,A,D,J,X,0,05.0.6.0,win,12317,20:04:32,42,axcpt,trialselector,0,0,175,25,25,25,100,150,22,668,216,1,3,A,D,J,X,0,05.0.6.0,win,12317,20:04:32,42,axcpt,AX,396,2,175,25,25,25,100,150,22,669,217,1,3,A,F,P,X,A,15.0.6.0,win,12317,20:04:32,42,axcpt,ISI_probe,300,0,175,25,25,25,100,150,22,670,217,1,3,A,F,P,X,0,05.0.6.0,win,12317,20:04:32,42,axcpt,trialselector,0,0,175,25,25,25,100,150,22,671,217,4,3,A,F,P,X,0,05.0.6.0,win,12317,20:04:32,42,axcpt,BY,929,3,175,25,25,25,100,150,22,672,218,4,3,O,S,Q,N,O,15.0.6.0,win,12317,20:04:32,42,axcpt,ISI_probe,271,0,175,25,25,25,100,150,22,673,218,4,3,O,S,Q,N,0,05.0.6.0,win,12317,20:04:32,42,axcpt,trialselector,0,0,175,25,25,25,100,150,22,674,218,1,3,O,S,Q,N,0,05.0.6.0,win,12317,20:04:32,42,axcpt,AX,630,2,175,25,25,25,100,150,22,675,219,1,3,A,D,H,X,A,15.0.6.0,win,12317,20:04:32,42,axcpt,ISI_probe,300,0,175,25,25,25,100,150,22,676,219,1,3,A,D,H,X,0,05.0.6.0,win,12317,20:04:32,42,axcpt,trialselector,0,0,175,25,25,25,100,150,22,677,219,1,3,A,D,H,X,0,05.0.6.0,win,12317,20:04:32,42,axcpt,AX,362,2,175,25,25,25,100,150,22,678,220,1,3,A,D,Z,X,A,15.0.6.0,win,12317,20:04:32,42,axcpt,ISI_probe,300,0,175,25,25,25,100,150,22,679,220,1,3,A,D,Z,X,0,05.0.6.0,win,12317,20:04:32,42,axcpt,trialselector,0,0,175,25,25,25,100,150,22,680,220,2,3,A,D,Z,X,0,05.0.6.0,win,12317,20:04:32,42,axcpt,AY,269,2,175,25,25,25,100,150,22,681,221,2,3,A,N,I,E,A,05.0.6.0,win,12317,20:04:32,42,axcpt,ISI_probe,300,0,175,25,25,25,100,150,22,682,221,2,3,A,N,I,E,0,05.0.6.0,win,12317,20:04:32,42,axcpt,trialselector,0,0,175,25,25,25,100,150,22,683,221,1,3,A,N,I,E,0,05.0.6.0,win,12317,20:04:32,42,axcpt,AX,636,2,175,25,25,25,100,150,22,684,222,1,3,A,L,Q,X,A,15.0.6.0,win,12317,20:04:32,42,axcpt,ISI_probe,300,0,175,25,25,25,100,150,22,685,222,1,3,A,L,Q,X,0,05.0.6.0,win,12317,20:04:32,42,axcpt,trialselector,0,0,175,25,25,25,100,150,22,686,222,1,3,A,L,Q,X,0,05.0.6.0,win,12317,20:04:32,42,axcpt,AX,533,2,175,25,25,25,100,150,22,687,223,1,3,A,D,B,X,A,15.0.6.0,win,12317,20:04:32,42,axcpt,ISI_probe,300,0,175,25,25,25,100,150,22,688,223,1,3,A,D,B,X,0,05.0.6.0,win,12317,20:04:32,42,axcpt,trialselector,0,0,175,25,25,25,100,150,22,689,223,1,3,A,D,B,X,0,05.0.6.0,win,12317,20:04:32,42,axcpt,AX,315,2,175,25,25,25,100,150,22,690,224,1,3,A,T,G,X,A,15.0.6.0,win,12317,20:04:32,42,axcpt,ISI_probe,300,0,175,25,25,25,100,150,22,691,224,1,3,A,T,G,X,0,05.0.6.0,win,12317,20:04:32,42,axcpt,trialselector,0,0,175,25,25,25,100,150,22,692,224,3,3,A,T,G,X,0,05.0.6.0,win,12317,20:04:32,42,axcpt,BX,559,2,175,25,25,25,100,150,22,693,225,3,3,J,C,L,X,J,05.0.6.0,win,12317,20:04:32,42,axcpt,ISI_probe,300,0,175,25,25,25,100,150,22,694,225,3,3,J,C,L,X,0,05.0.6.0,win,12317,20:04:32,42,axcpt,trialselector,0,0,175,25,25,25,100,150,22,695,225,1,3,J,C,L,X,0,05.0.6.0,win,12317,20:04:32,42,axcpt,AX,254,2,175,25,25,25,100,150,22,696,226,1,3,A,J,O,X,A,15.0.6.0,win,12317,20:04:32,42,axcpt,ISI_probe,300,0,175,25,25,25,100,150,22,697,226,1,3,A,J,O,X,0,05.0.6.0,win,12317,20:04:32,42,axcpt,trialselector,0,0,175,25,25,25,100,150,22,698,226,1,3,A,J,O,X,0,05.0.6.0,win,12317,20:04:32,42,axcpt,AX,479,2,175,25,25,25,100,150,22,699,227,1,3,A,R,P,X,A,15.0.6.0,win,12317,20:04:32,42,axcpt,ISI_probe,300,0,175,25,25,25,100,150,22,700,227,1,3,A,R,P,X,0,05.0.6.0,win,12317,20:04:32,42,axcpt,trialselector,0,0,175,25,25,25,100,150,22,701,227,4,3,A,R,P,X,0,05.0.6.0,win,12317,20:04:32,42,axcpt,BY,600,3,175,25,25,25,100,150,22,702,228,4,3,I,E,S,U,I,15.0.6.0,win,12317,20:04:32,42,axcpt,ISI_probe,300,0,175,25,25,25,100,150,22,703,228,4,3,I,E,S,U,0,05.0.6.0,win,12317,20:04:32,42,axcpt,trialselector,0,0,175,25,25,25,100,150,22,704,228,1,3,I,E,S,U,0,05.0.6.0,win,12317,20:04:32,42,axcpt,AX,755,2,175,25,25,25,100,150,22,705,229,1,3,A,F,Q,X,A,15.0.6.0,win,12317,20:04:32,42,axcpt,ISI_probe,300,0,175,25,25,25,100,150,22,706,229,1,3,A,F,Q,X,0,05.0.6.0,win,12317,20:04:32,42,axcpt,trialselector,0,0,175,25,25,25,100,150,22,707,229,1,3,A,F,Q,X,0,05.0.6.0,win,12317,20:04:32,42,axcpt,AX,386,2,175,25,25,25,100,150,22,708,230,1,3,A,O,M,X,A,15.0.6.0,win,12317,20:04:32,42,axcpt,ISI_probe,300,0,175,25,25,25,100,150,22,709,230,1,3,A,O,M,X,0,05.0.6.0,win,12317,20:04:32,42,axcpt,trialselector,0,0,175,25,25,25,100,150,22,710,230,4,3,A,O,M,X,0,05.0.6.0,win,12317,20:04:32,42,axcpt,BY,684,3,175,25,25,25,100,150,22,711,231,4,3,S,U,L,B,S,15.0.6.0,win,12317,20:04:32,42,axcpt,ISI_probe,300,0,175,25,25,25,100,150,22,712,231,4,3,S,U,L,B,0,05.0.6.0,win,12317,20:04:32,42,axcpt,trialselector,0,0,175,25,25,25,100,150,22,713,231,1,3,S,U,L,B,0,05.0.6.0,win,12317,20:04:32,42,axcpt,AX,525,2,175,25,25,25,100,150,22,714,232,1,3,A,I,T,X,A,15.0.6.0,win,12317,20:04:32,42,axcpt,ISI_probe,300,0,175,25,25,25,100,150,22,715,232,1,3,A,I,T,X,0,05.0.6.0,win,12317,20:04:32,42,axcpt,trialselector,0,0,175,25,25,25,100,150,22,716,232,4,3,A,I,T,X,0,05.0.6.0,win,12317,20:04:32,42,axcpt,BY,776,3,175,25,25,25,100,150,22,717,233,4,3,T,C,S,J,T,15.0.6.0,win,12317,20:04:32,42,axcpt,ISI_probe,300,0,175,25,25,25,100,150,22,718,233,4,3,T,C,S,J,0,05.0.6.0,win,12317,20:04:32,42,axcpt,trialselector,0,0,175,25,25,25,100,150,22,719,233,1,3,T,C,S,J,0,05.0.6.0,win,12317,20:04:32,42,axcpt,AX,675,2,175,25,25,25,100,150,22,720,234,1,3,A,S,U,X,A,15.0.6.0,win,12317,20:04:32,42,axcpt,ISI_probe,300,0,175,25,25,25,100,150,22,721,234,1,3,A,S,U,X,0,05.0.6.0,win,12317,20:04:32,42,axcpt,trialselector,0,0,175,25,25,25,100,150,22,722,234,1,3,A,S,U,X,0,05.0.6.0,win,12317,20:04:32,42,axcpt,AX,510,2,175,25,25,25,100,150,22,723,235,1,3,A,R,T,X,A,15.0.6.0,win,12317,20:04:32,42,axcpt,ISI_probe,300,0,175,25,25,25,100,150,22,724,235,1,3,A,R,T,X,0,05.0.6.0,win,12317,20:04:32,42,axcpt,trialselector,0,0,175,25,25,25,100,150,22,725,235,1,3,A,R,T,X,0,05.0.6.0,win,12317,20:04:32,42,axcpt,AX,488,2,175,25,25,25,100,150,22,726,236,1,3,A,C,R,X,A,15.0.6.0,win,12317,20:04:32,42,axcpt,ISI_probe,300,0,175,25,25,25,100,150,22,727,236,1,3,A,C,R,X,0,05.0.6.0,win,12317,20:04:32,42,axcpt,trialselector,0,0,175,25,25,25,100,150,22,728,236,1,3,A,C,R,X,0,05.0.6.0,win,12317,20:04:32,42,axcpt,AX,410,2,175,25,25,25,100,150,22,729,237,1,3,A,C,F,X,A,15.0.6.0,win,12317,20:04:32,42,axcpt,ISI_probe,300,0,175,25,25,25,100,150,22,730,237,1,3,A,C,F,X,0,05.0.6.0,win,12317,20:04:32,42,axcpt,trialselector,0,0,175,25,25,25,100,150,22,731,237,1,3,A,C,F,X,0,05.0.6.0,win,12317,20:04:32,42,axcpt,AX,225,2,175,25,25,25,100,150,22,732,238,1,3,A,J,F,X,A,15.0.6.0,win,12317,20:04:32,42,axcpt,ISI_probe,300,0,175,25,25,25,100,150,22,733,238,1,3,A,J,F,X,0,05.0.6.0,win,12317,20:04:32,42,axcpt,trialselector,0,0,175,25,25,25,100,150,22,734,238,1,3,A,J,F,X,0,05.0.6.0,win,12317,20:04:32,42,axcpt,AX,239,2,175,25,25,25,100,150,22,735,239,1,3,A,U,I,X,A,15.0.6.0,win,12317,20:04:32,42,axcpt,ISI_probe,300,0,175,25,25,25,100,150,22,736,239,1,3,A,U,I,X,0,05.0.6.0,win,12317,20:04:32,42,axcpt,trialselector,0,0,175,25,25,25,100,150,22,737,239,1,3,A,U,I,X,0,05.0.6.0,win,12317,20:04:32,42,axcpt,AX,445,2,175,25,25,25,100,150,22,738,240,1,3,A,J,R,X,A,15.0.6.0,win,12317,20:04:32,42,axcpt,ISI_probe,300,0,175,25,25,25,100,150,22,739,240,1,3,A,J,R,X,0,05.0.6.0,win,12317,20:04:32,42,axcpt,trialselector,0,0,175,25,25,25,100,150,22,740,240,1,3,A,J,R,X,0,05.0.6.0,win,12317,20:04:32,42,axcpt,AX,350,2,175,25,25,25,100,150,22,741,241,1,3,A,H,F,X,A,15.0.6.0,win,12317,20:04:32,42,axcpt,ISI_probe,300,0,175,25,25,25,100,150,22,742,241,1,3,A,H,F,X,0,05.0.6.0,win,12317,20:04:32,42,axcpt,trialselector,0,0,175,25,25,25,100,150,22,743,241,1,3,A,H,F,X,0,05.0.6.0,win,12317,20:04:32,42,axcpt,AX,311,2,175,25,25,25,100,150,22,744,242,1,3,A,P,L,X,A,15.0.6.0,win,12317,20:04:32,42,axcpt,ISI_probe,300,0,175,25,25,25,100,150,22,745,242,1,3,A,P,L,X,0,05.0.6.0,win,12317,20:04:32,42,axcpt,trialselector,0,0,175,25,25,25,100,150,22,746,242,1,3,A,P,L,X,0,05.0.6.0,win,12317,20:04:32,42,axcpt,AX,247,2,175,25,25,25,100,150,22,747,243,1,3,A,I,D,X,A,15.0.6.0,win,12317,20:04:32,42,axcpt,ISI_probe,300,0,175,25,25,25,100,150,22,748,243,1,3,A,I,D,X,0,05.0.6.0,win,12317,20:04:32,42,axcpt,trialselector,0,0,175,25,25,25,100,150,22,749,243,1,3,A,I,D,X,0,05.0.6.0,win,12317,20:04:32,42,axcpt,AX,289,2,175,25,25,25,100,150,22,750,244,1,3,A,S,U,X,A,15.0.6.0,win,12317,20:04:32,42,axcpt,ISI_probe,300,0,175,25,25,25,100,150,22,751,244,1,3,A,S,U,X,0,05.0.6.0,win,12317,20:04:32,42,axcpt,trialselector,0,0,175,25,25,25,100,150,22,752,244,1,3,A,S,U,X,0,05.0.6.0,win,12317,20:04:32,42,axcpt,AX,308,2,175,25,25,25,100,150,22,753,245,1,3,A,Z,Q,X,A,15.0.6.0,win,12317,20:04:32,42,axcpt,ISI_probe,300,0,175,25,25,25,100,150,22,754,245,1,3,A,Z,Q,X,0,05.0.6.0,win,12317,20:04:32,42,axcpt,trialselector,0,0,175,25,25,25,100,150,22,755,245,1,3,A,Z,Q,X,0,05.0.6.0,win,12317,20:04:32,42,axcpt,AX,235,2,175,25,25,25,100,150,22,756,246,1,3,A,N,G,X,A,15.0.6.0,win,12317,20:04:32,42,axcpt,ISI_probe,300,0,175,25,25,25,100,150,22,757,246,1,3,A,N,G,X,0,05.0.6.0,win,12317,20:04:32,42,axcpt,trialselector,0,0,175,25,25,25,100,150,22,758,246,1,3,A,N,G,X,0,05.0.6.0,win,12317,20:04:32,42,axcpt,AX,226,2,175,25,25,25,100,150,22,759,247,1,3,A,Z,J,X,A,15.0.6.0,win,12317,20:04:32,42,axcpt,ISI_probe,300,0,175,25,25,25,100,150,22,760,247,1,3,A,Z,J,X,0,05.0.6.0,win,12317,20:04:32,42,axcpt,trialselector,0,0,175,25,25,25,100,150,22,761,247,2,3,A,Z,J,X,0,05.0.6.0,win,12317,20:04:32,42,axcpt,AY,631,3,175,25,25,25,100,150,22,762,248,2,3,A,H,C,B,A,15.0.6.0,win,12317,20:04:32,42,axcpt,ISI_probe,300,0,175,25,25,25,100,150,22,763,248,2,3,A,H,C,B,0,05.0.6.0,win,12317,20:04:32,42,axcpt,trialselector,0,0,175,25,25,25,100,150,22,764,248,3,3,A,H,C,B,0,05.0.6.0,win,12317,20:04:32,42,axcpt,BX,460,2,175,25,25,25,100,150,22,765,249,3,3,N,M,Q,X,N,05.0.6.0,win,12317,20:04:32,42,axcpt,ISI_probe,300,0,175,25,25,25,100,150,22,766,249,3,3,N,M,Q,X,0,05.0.6.0,win,12317,20:04:32,42,axcpt,trialselector,0,0,175,25,25,25,100,150,22,767,249,1,3,N,M,Q,X,0,05.0.6.0,win,12317,20:04:32,42,axcpt,AX,291,2,175,25,25,25,100,150,22,768,250,1,3,A,D,S,X,A,15.0.6.0,win,12317,20:04:32,42,axcpt,ISI_probe,300,0,175,25,25,25,100,150,22,769,250,1,3,A,D,S,X,0,05.0.6.0,win,12317,20:04:32,42,rey_trial8_pres_instruct,trial8_pres_instruct2,4991,57,175,25,25,25,100,150,23,1,250,1,3,A,D,S,X,Remember the long list which you practiced learning multiple times?,05.0.6.0,win,12317,20:04:32,42,rey_trial8_pres_instruct,trial8_pres_instruct3,918,57,175,25,25,25,100,150,23,2,250,1,3,A,D,S,X,Remember the long list which you practiced learning multiple times?   Please type in as many of those words as you can remember in any order that comes to mind.,05.0.6.0,win,12317,20:04:32,42,rey_trial8_recall,trial8_recall_response1,2995,color,175,25,25,25,100,150,24,1,250,1,3,A,D,S,X,recallrect2_empty,05.0.6.0,win,12317,20:04:32,42,rey_trial8_recall,trial8_recall_response2,3923,river,175,25,25,25,100,150,24,2,250,1,3,A,D,S,X,recallrect1_full,05.0.6.0,win,12317,20:04:32,42,rey_trial8_recall,trial8_recall_response3,1857,house,175,25,25,25,100,150,24,3,250,1,3,A,D,S,X,recallrect1_full,05.0.6.0,win,12317,20:04:32,42,rey_trial8_recall,trial8_recall_response4,1477,school,175,25,25,25,100,150,24,4,250,1,3,A,D,S,X,recallrect1_full,05.0.6.0,win,12317,20:04:32,42,rey_trial8_recall,trial8_recall_response5,2681,drum,175,25,25,25,100,150,24,5,250,1,3,A,D,S,X,recallrect1_full,05.0.6.0,win,12317,20:04:32,42,rey_trial8_recall,trial8_recall_response6,901,bell,175,25,25,25,100,150,24,6,250,1,3,A,D,S,X,recallrect1_full,05.0.6.0,win,12317,20:04:32,42,rey_trial8_recall,trial8_recall_response7,2015,garden,175,25,25,25,100,150,24,7,250,1,3,A,D,S,X,recallrect1_full,05.0.6.0,win,12317,20:04:32,42,rey_trial8_recall,trial8_recall_response8,1284,curtain,175,25,25,25,100,150,24,8,250,1,3,A,D,S,X,recallrect1_full,05.0.6.0,win,12317,20:04:32,42,rey_trial8_recall,trial8_recall_response9,2227,house,175,25,25,25,100,150,24,9,250,1,3,A,D,S,X,recallrect1_full,05.0.6.0,win,12317,20:04:32,42,rey_trial8_recall,trial8_recall_response10,5659,turkey,175,25,25,25,100,150,24,10,250,1,3,A,D,S,X,recallrect1_full,05.0.6.0,win,12317,20:04:32,42,rey_trial8_recall,trial8_recall_response11,4607,farmer,175,25,25,25,100,150,24,11,250,1,3,A,D,S,X,recallrect1_full,05.0.6.0,win,12317,20:04:32,42,rey_trial8_recall,trial8_recall_response12,16843,,175,25,25,25,100,150,24,12,250,1,3,A,D,S,X,recallrect1_full,05.0.6.0,win,12317,20:04:32,42,end_page,End,3242,57,175,25,25,25,100,150,26,1,250,1,3,A,D,S,X,This is a pilot of a neurocognitive task that is assessing memory and attention.,05.0.6.0,win,12317,20:04:32,42,end_page,End1,4181,57,175,25,25,25,100,150,26,2,250,1,3,A,D,S,X,This is a pilot of a neurocognitive task that is assessing memory and attention.  This task will be used to help us better understand PTSD in War Veterans.,05.0.6.0,win,12317,20:04:32,42,end_page,End2,1606,57,175,25,25,25,100,150,26,3,250,1,3,A,D,S,X,This is a pilot of a neurocognitive task that is assessing memory and attention.  This task will be used to help us better understand PTSD in War Veterans.  Not all veterans are getting the care that works best for them.,05.0.6.0,win,12317,20:04:32,42,end_page,End3,2043,57,175,25,25,25,100,150,26,4,250,1,3,A,D,S,X,This is a pilot of a neurocognitive task that is assessing memory and attention.  This task will be used to help us better understand PTSD in War Veterans.  Not all veterans are getting the care that works best for them.  Our goal is to ensure veterans are getting the most effective and personalized treatment.,05.0.6.0,win,12317,20:04:32,42,end_page,End4,2098,57,175,25,25,25,100,150,26,5,250,1,3,A,D,S,X,This is a pilot of a neurocognitive task that is assessing memory and attention.  This task will be used to help us better understand PTSD in War Veterans.   Not all veterans are getting the care that works best for them.  Our goal is to ensure veterans are getting the most effective and personalized treatment.  Your participation in this task has helped us move towards reaching that goal!,05.0.6.0,win,12317,20:27:35,41,rey_trial1_pres_instruct,trial1_pres_instruct1,1000,0,175,25,25,25,100,150,2,1,0,0,0,0,0,0,0,Task 1,05.0.6.0,win,12317,20:27:35,41,rey_trial1_pres_instruct,trial1_pres_instruct2,2883,57,175,25,25,25,100,150,2,2,0,0,0,0,0,0,0,"This task may seem a bit difficult in the beginning, but usually it gets easier as we go along.",0