,build,computer.platform,date,time,subject,group,blockcode,blocknum,trialcode,response,expressions.nr_targettrials_AX,expressions.nr_nontargettrials_AY,expressions.nr_nontargettrials_BX,expressions.nr_nontargettrials_BY,expressions.phase1trials,expressions.phase3trials,values.trialcount,values.counttrials,values.trialtype,values.phase,values.cue,values.distractor1,values.distractor2,values.probe,stimulusitem1,response.1,correct,latency
0,5.0.6.0,win,12217,0:24:57,10,10,rey_trial1_pres_instruct,2,trial1_pres_instruct1,0,175,25,25,25,100,150,1,0,0,0,0,0,0,0,Task 1,0,0,1000
1,5.0.6.0,win,12217,0:24:57,10,10,rey_trial1_pres_instruct,2,trial1_pres_instruct2,57,175,25,25,25,100,150,2,0,0,0,0,0,0,0,"This task may seem a bit difficult in the beginning, but usually it gets easier as we go along.",57,0,6847
2,5.0.6.0,win,12217,0:24:57,10,10,rey_trial1_pres_instruct,2,trial1_pres_instruct3,57,175,25,25,25,100,150,3,0,0,0,0,0,0,0,"This task may seem a bit difficult in the beginning, but usually it gets easier as we go along.  You are going to see words appear on the screen one by one.",57,0,49281
3,5.0.6.0,win,12217,0:24:57,10,10,rey_trial1_pres_instruct,2,trial1_pres_instruct4,57,175,25,25,25,100,150,4,0,0,0,0,0,0,0,"This task may seem a bit difficult in the beginning, but usually it gets easier as we go along.   You are going to see words appear on the screen one by one.  After all the words have finished appearing on the screen, you will be asked to type in as many of the words as you can remember.",57,0,9894
4,5.0.6.0,win,12217,0:24:57,10,10,rey_trial1_pres_instruct,2,trial1_pres_instruct5,57,175,25,25,25,100,150,5,0,0,0,0,0,0,0,You can type them in any order that comes to mind.,57,0,2606
5,5.0.6.0,win,12217,0:24:57,10,10,rey_trial1_pres_instruct,2,trial1_pres_instruct6,57,175,25,25,25,100,150,6,0,0,0,0,0,0,0,You can type them in any order that comes to mind.   Try not to repeat yourself by giving the same word more than once.,57,0,3006
6,5.0.6.0,win,12217,0:24:57,10,10,rey_trial1_pres_instruct,2,trial1_pres_instruct7,57,175,25,25,25,100,150,7,0,0,0,0,0,0,0,"You can type them in any order that comes to mind.   Try not to repeat yourself by giving the same word more than once.   Remember, the order does not matter and it is okay if you cannot remember some words.",57,0,3344
7,5.0.6.0,win,12217,0:24:57,10,10,rey_trial1_pres_instruct,2,trial1_pres_instruct8,57,175,25,25,25,100,150,8,0,0,0,0,0,0,0,"You can type them in any order that comes to mind.   Try not to repeat yourself by giving the same word more than once.   Remember, the order does not matter and it is okay if you cannot remember some words.   You are then going to do this task a few more times to see how many words you can eventually learn.",57,0,3039
8,5.0.6.0,win,12217,0:24:57,10,10,rey_trial1_pres_instruct,2,trial1_pres_instruct9,57,175,25,25,25,100,150,9,0,0,0,0,0,0,0,Press spacebar when you are ready to begin the task.,57,0,2399
9,5.0.6.0,win,12217,0:24:57,10,10,rey_trial1_pres_instruct,2,rey_list_presentation_1a,57,175,25,25,25,100,150,9,0,0,0,0,0,0,0,Press spacebar when you are ready to begin the task.,57,0,2399
10,5.0.6.0,win,12217,0:24:57,10,10,rey_trial1_recall,4,trial1_recall_response1,school,175,25,25,25,100,150,1,0,0,0,0,0,0,0,recallrect2_empty,school,0,11640
11,5.0.6.0,win,12217,0:24:57,10,10,rey_trial1_recall,4,trial1_recall_response2,coffe,175,25,25,25,100,150,2,0,0,0,0,0,0,0,recallrect1_full,coffe,0,2887
12,5.0.6.0,win,12217,0:24:57,10,10,rey_trial1_recall,4,trial1_recall_response3,riven,175,25,25,25,100,150,3,0,0,0,0,0,0,0,recallrect1_full,riven,0,4348
13,5.0.6.0,win,12217,0:24:57,10,10,rey_trial1_recall,4,trial1_recall_response4,drum,175,25,25,25,100,150,4,0,0,0,0,0,0,0,recallrect1_full,drum,0,6632
14,5.0.6.0,win,12217,0:24:57,10,10,rey_trial1_recall,4,trial1_recall_response5,moon,175,25,25,25,100,150,5,0,0,0,0,0,0,0,recallrect1_full,moon,0,6609
15,5.0.6.0,win,12217,0:24:57,10,10,rey_trial1_recall,4,trial1_recall_response6,river,175,25,25,25,100,150,6,0,0,0,0,0,0,0,recallrect1_full,river,0,15861
16,5.0.6.0,win,12217,0:24:57,10,10,rey_trial1_recall,4,trial1_recall_response7,nose,175,25,25,25,100,150,7,0,0,0,0,0,0,0,recallrect1_full,nose,0,4789
17,5.0.6.0,win,12217,0:24:57,10,10,rey_trial1_recall,4,trial1_recall_response8,noise,175,25,25,25,100,150,8,0,0,0,0,0,0,0,recallrect1_full,noise,0,1438
18,5.0.6.0,win,12217,0:24:57,10,10,rey_trial1_recall,4,trial1_recall_response9,farmer,175,25,25,25,100,150,9,0,0,0,0,0,0,0,recallrect1_full,farmer,0,7270
19,5.0.6.0,win,12217,0:24:57,10,10,rey_trial1_recall,4,trial1_recall_response10,,175,25,25,25,100,150,10,0,0,0,0,0,0,0,recallrect1_full,,0,3702
20,5.0.6.0,win,12217,0:24:57,10,10,rey_trial2_pres_instruct,5,trial2_pres_instruct1,57,175,25,25,25,100,150,1,0,0,0,0,0,0,0,"Good, that was a good beginning.",57,0,4986
21,5.0.6.0,win,12217,0:24:57,10,10,rey_trial2_pres_instruct,5,trial2_pres_instruct2,57,175,25,25,25,100,150,2,0,0,0,0,0,0,0,"Good, that was a good beginning.   Now, you will see the same words you saw before.",57,0,1993
22,5.0.6.0,win,12217,0:24:57,10,10,rey_trial2_pres_instruct,5,trial2_pres_instruct3,57,175,25,25,25,100,150,3,0,0,0,0,0,0,0,"Good, that was a good beginning.   Now, you will see the same words you saw before.   At the end, you will be asked to type in as many words as you can remember including all the words you remembered on the first trial.",57,0,4632
23,5.0.6.0,win,12217,0:24:57,10,10,rey_trial2_pres_instruct,5,rey_list_presentation_1a,57,175,25,25,25,100,150,3,0,0,0,0,0,0,0,"Good, that was a good beginning.   Now, you will see the same words you saw before.   At the end, you will be asked to type in as many words as you can remember including all the words you remembered on the first trial.",57,0,4632
24,5.0.6.0,win,12217,0:24:57,10,10,rey_trial2_recall,7,trial2_recall_response1,river,175,25,25,25,100,150,1,0,0,0,0,0,0,0,recallrect2_empty,river,0,3831
25,5.0.6.0,win,12217,0:24:57,10,10,rey_trial2_recall,7,trial2_recall_response2,house,175,25,25,25,100,150,2,0,0,0,0,0,0,0,recallrect1_full,house,0,2709
26,5.0.6.0,win,12217,0:24:57,10,10,rey_trial2_recall,7,trial2_recall_response3,parents,175,25,25,25,100,150,3,0,0,0,0,0,0,0,recallrect1_full,parents,0,2590
27,5.0.6.0,win,12217,0:24:57,10,10,rey_trial2_recall,7,trial2_recall_response4,school,175,25,25,25,100,150,4,0,0,0,0,0,0,0,recallrect1_full,school,0,2437
28,5.0.6.0,win,12217,0:24:57,10,10,rey_trial2_recall,7,trial2_recall_response5,river,175,25,25,25,100,150,5,0,0,0,0,0,0,0,recallrect1_full,river,0,4210
29,5.0.6.0,win,12217,0:24:57,10,10,rey_trial2_recall,7,trial2_recall_response6,nose,175,25,25,25,100,150,6,0,0,0,0,0,0,0,recallrect1_full,nose,0,1289
30,5.0.6.0,win,12217,0:24:57,10,10,rey_trial2_recall,7,trial2_recall_response7,garden,175,25,25,25,100,150,7,0,0,0,0,0,0,0,recallrect1_full,garden,0,3782
31,5.0.6.0,win,12217,0:24:57,10,10,rey_trial2_recall,7,trial2_recall_response8,moon,175,25,25,25,100,150,8,0,0,0,0,0,0,0,recallrect1_full,moon,0,3083
32,5.0.6.0,win,12217,0:24:57,10,10,rey_trial2_recall,7,trial2_recall_response9,garden,175,25,25,25,100,150,9,0,0,0,0,0,0,0,recallrect1_full,garden,0,2857
33,5.0.6.0,win,12217,0:24:57,10,10,rey_trial2_recall,7,trial2_recall_response10,curtain,175,25,25,25,100,150,10,0,0,0,0,0,0,0,recallrect1_full,curtain,0,2360
34,5.0.6.0,win,12217,0:24:57,10,10,rey_trial2_recall,7,trial2_recall_response11,farmer,175,25,25,25,100,150,11,0,0,0,0,0,0,0,recallrect1_full,farmer,0,6933
35,5.0.6.0,win,12217,0:24:57,10,10,rey_trial2_recall,7,trial2_recall_response12,,175,25,25,25,100,150,12,0,0,0,0,0,0,0,recallrect1_full,,0,4181
36,5.0.6.0,win,12217,0:24:57,10,10,rey_trial3_pres_instruct,8,trial3_pres_instruct1,57,175,25,25,25,100,150,1,0,0,0,0,0,0,0,"Good, that was a good beginning.",57,0,1929
37,5.0.6.0,win,12217,0:24:57,10,10,rey_trial3_pres_instruct,8,trial3_pres_instruct2,57,175,25,25,25,100,150,2,0,0,0,0,0,0,0,"Good, that was a good beginning.   Now, you will see the same words you saw before.",57,0,1209
38,5.0.6.0,win,12217,0:24:57,10,10,rey_trial3_pres_instruct,8,trial3_pres_instruct3,57,175,25,25,25,100,150,3,0,0,0,0,0,0,0,"Good, that was a good beginning.   Now, you will see the same words you saw before.   At the end, you will be asked to type in as many words as you can remember including all the words you remembered on the first trial.",57,0,2489
39,5.0.6.0,win,12217,0:24:57,10,10,rey_trial3_pres_instruct,8,rey_list_presentation_1a,57,175,25,25,25,100,150,3,0,0,0,0,0,0,0,"Good, that was a good beginning.   Now, you will see the same words you saw before.   At the end, you will be asked to type in as many words as you can remember including all the words you remembered on the first trial.",57,0,2489
40,5.0.6.0,win,12217,0:24:57,10,10,rey_trial3_recall,10,trial3_recall_response1,river,175,25,25,25,100,150,1,0,0,0,0,0,0,0,recallrect2_empty,river,0,2094
41,5.0.6.0,win,12217,0:24:57,10,10,rey_trial3_recall,10,trial3_recall_response2,color,175,25,25,25,100,150,2,0,0,0,0,0,0,0,recallrect1_full,color,0,1570
42,5.0.6.0,win,12217,0:24:57,10,10,rey_trial3_recall,10,trial3_recall_response3,house,175,25,25,25,100,150,3,0,0,0,0,0,0,0,recallrect1_full,house,0,2283
43,5.0.6.0,win,12217,0:24:57,10,10,rey_trial3_recall,10,trial3_recall_response4,parents,175,25,25,25,100,150,4,0,0,0,0,0,0,0,recallrect1_full,parents,0,2323
44,5.0.6.0,win,12217,0:24:57,10,10,rey_trial3_recall,10,trial3_recall_response5,hat,175,25,25,25,100,150,5,0,0,0,0,0,0,0,recallrect1_full,hat,0,1925
45,5.0.6.0,win,12217,0:24:57,10,10,rey_trial3_recall,10,trial3_recall_response6,nose,175,25,25,25,100,150,6,0,0,0,0,0,0,0,recallrect1_full,nose,0,1797
46,5.0.6.0,win,12217,0:24:57,10,10,rey_trial3_recall,10,trial3_recall_response7,farmer,175,25,25,25,100,150,7,0,0,0,0,0,0,0,recallrect1_full,farmer,0,3100
47,5.0.6.0,win,12217,0:24:57,10,10,rey_trial3_recall,10,trial3_recall_response8,garden,175,25,25,25,100,150,8,0,0,0,0,0,0,0,recallrect1_full,garden,0,1511
48,5.0.6.0,win,12217,0:24:57,10,10,rey_trial3_recall,10,trial3_recall_response9,drum,175,25,25,25,100,150,9,0,0,0,0,0,0,0,recallrect1_full,drum,0,1171
49,5.0.6.0,win,12217,0:24:57,10,10,rey_trial3_recall,10,trial3_recall_response10,bell,175,25,25,25,100,150,10,0,0,0,0,0,0,0,recallrect1_full,bell,0,1203
50,5.0.6.0,win,12217,0:24:57,10,10,rey_trial3_recall,10,trial3_recall_response11,turkey,175,25,25,25,100,150,11,0,0,0,0,0,0,0,recallrect1_full,turkey,0,5383
51,5.0.6.0,win,12217,0:24:57,10,10,rey_trial3_recall,10,trial3_recall_response12,curtain,175,25,25,25,100,150,12,0,0,0,0,0,0,0,recallrect1_full,curtain,0,7581
52,5.0.6.0,win,12217,0:24:57,10,10,rey_trial3_recall,10,trial3_recall_response13,school,175,25,25,25,100,150,13,0,0,0,0,0,0,0,recallrect1_full,school,0,4145
53,5.0.6.0,win,12217,0:24:57,10,10,rey_trial3_recall,10,trial3_recall_response14,coffe,175,25,25,25,100,150,14,0,0,0,0,0,0,0,recallrect1_full,coffe,0,2072
54,5.0.6.0,win,12217,0:24:57,10,10,rey_trial3_recall,10,trial3_recall_response15,moon,175,25,25,25,100,150,15,0,0,0,0,0,0,0,recallrect1_full,moon,0,3053
55,5.0.6.0,win,12217,0:24:57,10,10,rey_trial3_recall,10,trial3_recall_response16,,175,25,25,25,100,150,16,0,0,0,0,0,0,0,recallrect1_full,,0,1071
56,5.0.6.0,win,12217,0:24:57,10,10,rey_trial4_pres_instruct,11,trial4_pres_instruct1,57,175,25,25,25,100,150,1,0,0,0,0,0,0,0,"Good, that was a good beginning.",57,0,1312
57,5.0.6.0,win,12217,0:24:57,10,10,rey_trial4_pres_instruct,11,trial4_pres_instruct2,57,175,25,25,25,100,150,2,0,0,0,0,0,0,0,"Good, that was a good beginning.   Now, you will see the same words you saw before.",57,0,929
58,5.0.6.0,win,12217,0:24:57,10,10,rey_trial4_pres_instruct,11,trial4_pres_instruct3,57,175,25,25,25,100,150,3,0,0,0,0,0,0,0,"Good, that was a good beginning.   Now, you will see the same words you saw before.   At the end, you will be asked to type in as many words as you can remember including all the words you remembered on the first trial.",57,0,833
59,5.0.6.0,win,12217,0:24:57,10,10,rey_trial4_pres_instruct,11,rey_list_presentation_1a,57,175,25,25,25,100,150,3,0,0,0,0,0,0,0,"Good, that was a good beginning.   Now, you will see the same words you saw before.   At the end, you will be asked to type in as many words as you can remember including all the words you remembered on the first trial.",57,0,833
60,5.0.6.0,win,12217,0:24:57,10,10,rey_trial4_recall,13,trial4_recall_response1,river,175,25,25,25,100,150,1,0,0,0,0,0,0,0,recallrect2_empty,river,0,2644
61,5.0.6.0,win,12217,0:24:57,10,10,rey_trial4_recall,13,trial4_recall_response2,house,175,25,25,25,100,150,2,0,0,0,0,0,0,0,recallrect1_full,house,0,1787
62,5.0.6.0,win,12217,0:24:57,10,10,rey_trial4_recall,13,trial4_recall_response3,nose,175,25,25,25,100,150,3,0,0,0,0,0,0,0,recallrect1_full,nose,0,1194
63,5.0.6.0,win,12217,0:24:57,10,10,rey_trial4_recall,13,trial4_recall_response4,parent,175,25,25,25,100,150,4,0,0,0,0,0,0,0,recallrect1_full,parent,0,1727
64,5.0.6.0,win,12217,0:24:57,10,10,rey_trial4_recall,13,trial4_recall_response5,garden,175,25,25,25,100,150,5,0,0,0,0,0,0,0,recallrect1_full,garden,0,4221
65,5.0.6.0,win,12217,0:24:57,10,10,rey_trial4_recall,13,trial4_recall_response6,farmer,175,25,25,25,100,150,6,0,0,0,0,0,0,0,recallrect1_full,farmer,0,1503
66,5.0.6.0,win,12217,0:24:57,10,10,rey_trial4_recall,13,trial4_recall_response7,bell,175,25,25,25,100,150,7,0,0,0,0,0,0,0,recallrect1_full,bell,0,1708
67,5.0.6.0,win,12217,0:24:57,10,10,rey_trial4_recall,13,trial4_recall_response8,drum,175,25,25,25,100,150,8,0,0,0,0,0,0,0,recallrect1_full,drum,0,2590
68,5.0.6.0,win,12217,0:24:57,10,10,rey_trial4_recall,13,trial4_recall_response9,moon,175,25,25,25,100,150,9,0,0,0,0,0,0,0,recallrect1_full,moon,0,2100
69,5.0.6.0,win,12217,0:24:57,10,10,rey_trial4_recall,13,trial4_recall_response10,school,175,25,25,25,100,150,10,0,0,0,0,0,0,0,recallrect1_full,school,0,8209
70,5.0.6.0,win,12217,0:24:57,10,10,rey_trial4_recall,13,trial4_recall_response11,coffe,175,25,25,25,100,150,11,0,0,0,0,0,0,0,recallrect1_full,coffe,0,1592
71,5.0.6.0,win,12217,0:24:57,10,10,rey_trial4_recall,13,trial4_recall_response12,turkey,175,25,25,25,100,150,12,0,0,0,0,0,0,0,recallrect1_full,turkey,0,6309
72,5.0.6.0,win,12217,0:24:57,10,10,rey_trial4_recall,13,trial4_recall_response13,color,175,25,25,25,100,150,13,0,0,0,0,0,0,0,recallrect1_full,color,0,1254
73,5.0.6.0,win,12217,0:24:57,10,10,rey_trial4_recall,13,trial4_recall_response14,river,175,25,25,25,100,150,14,0,0,0,0,0,0,0,recallrect1_full,river,0,3635
74,5.0.6.0,win,12217,0:24:57,10,10,rey_trial4_recall,13,trial4_recall_response15,,175,25,25,25,100,150,15,0,0,0,0,0,0,0,recallrect1_full,,0,6753
75,5.0.6.0,win,12217,0:24:57,10,10,rey_trial5_pres_instruct,14,trial5_pres_instruct1,57,175,25,25,25,100,150,1,0,0,0,0,0,0,0,"Good, that was a good beginning.",57,0,1295
76,5.0.6.0,win,12217,0:24:57,10,10,rey_trial5_pres_instruct,14,trial5_pres_instruct2,57,175,25,25,25,100,150,2,0,0,0,0,0,0,0,"Good, that was a good beginning.   Now, you will see the same words you saw before.",57,0,332
77,5.0.6.0,win,12217,0:24:57,10,10,rey_trial5_pres_instruct,14,trial5_pres_instruct3,57,175,25,25,25,100,150,3,0,0,0,0,0,0,0,"Good, that was a good beginning.   Now, you will see the same words you saw before.   At the end, you will be asked to type in as many words as you can remember including all the words you remembered on the first trial.",57,0,201
78,5.0.6.0,win,12217,0:24:57,10,10,rey_trial5_pres_instruct,14,rey_list_presentation_1a,57,175,25,25,25,100,150,3,0,0,0,0,0,0,0,"Good, that was a good beginning.   Now, you will see the same words you saw before.   At the end, you will be asked to type in as many words as you can remember including all the words you remembered on the first trial.",57,0,201
79,5.0.6.0,win,12217,0:24:57,10,10,rey_trial5_recall,16,trial5_recall_response1,river,175,25,25,25,100,150,1,0,0,0,0,0,0,0,recallrect2_empty,river,0,1523
80,5.0.6.0,win,12217,0:24:57,10,10,rey_trial5_recall,16,trial5_recall_response2,house,175,25,25,25,100,150,2,0,0,0,0,0,0,0,recallrect1_full,house,0,1283
81,5.0.6.0,win,12217,0:24:57,10,10,rey_trial5_recall,16,trial5_recall_response3,parent,175,25,25,25,100,150,3,0,0,0,0,0,0,0,recallrect1_full,parent,0,1199
82,5.0.6.0,win,12217,0:24:57,10,10,rey_trial5_recall,16,trial5_recall_response4,turkey,175,25,25,25,100,150,4,0,0,0,0,0,0,0,recallrect1_full,turkey,0,1478
83,5.0.6.0,win,12217,0:24:57,10,10,rey_trial5_recall,16,trial5_recall_response5,color,175,25,25,25,100,150,5,0,0,0,0,0,0,0,recallrect1_full,color,0,1237
84,5.0.6.0,win,12217,0:24:57,10,10,rey_trial5_recall,16,trial5_recall_response6,garden,175,25,25,25,100,150,6,0,0,0,0,0,0,0,recallrect1_full,garden,0,5278
85,5.0.6.0,win,12217,0:24:57,10,10,rey_trial5_recall,16,trial5_recall_response7,farmer,175,25,25,25,100,150,7,0,0,0,0,0,0,0,recallrect1_full,farmer,0,1226
86,5.0.6.0,win,12217,0:24:57,10,10,rey_trial5_recall,16,trial5_recall_response8,parent,175,25,25,25,100,150,8,0,0,0,0,0,0,0,recallrect1_full,parent,0,2342
87,5.0.6.0,win,12217,0:24:57,10,10,rey_trial5_recall,16,trial5_recall_response9,school,175,25,25,25,100,150,9,0,0,0,0,0,0,0,recallrect1_full,school,0,4469
88,5.0.6.0,win,12217,0:24:57,10,10,rey_trial5_recall,16,trial5_recall_response10,coffe,175,25,25,25,100,150,10,0,0,0,0,0,0,0,recallrect1_full,coffe,0,1479
89,5.0.6.0,win,12217,0:24:57,10,10,rey_trial5_recall,16,trial5_recall_response11,drum,175,25,25,25,100,150,11,0,0,0,0,0,0,0,recallrect1_full,drum,0,2586
90,5.0.6.0,win,12217,0:24:57,10,10,rey_trial5_recall,16,trial5_recall_response12,bell,175,25,25,25,100,150,12,0,0,0,0,0,0,0,recallrect1_full,bell,0,1189
91,5.0.6.0,win,12217,0:24:57,10,10,rey_trial5_recall,16,trial5_recall_response13,moon,175,25,25,25,100,150,13,0,0,0,0,0,0,0,recallrect1_full,moon,0,1677
92,5.0.6.0,win,12217,0:24:57,10,10,rey_trial5_recall,16,trial5_recall_response14,nose,175,25,25,25,100,150,14,0,0,0,0,0,0,0,recallrect1_full,nose,0,9112
93,5.0.6.0,win,12217,0:24:57,10,10,rey_trial5_recall,16,trial5_recall_response15,coffe,175,25,25,25,100,150,15,0,0,0,0,0,0,0,recallrect1_full,coffe,0,4847
94,5.0.6.0,win,12217,0:24:57,10,10,rey_trial5_recall,16,trial5_recall_response16,hat,175,25,25,25,100,150,16,0,0,0,0,0,0,0,recallrect1_full,hat,0,866
95,5.0.6.0,win,12217,0:24:57,10,10,rey_trial5_recall,16,trial5_recall_response17,,175,25,25,25,100,150,17,0,0,0,0,0,0,0,recallrect1_full,,0,5848
96,5.0.6.0,win,12217,0:24:57,10,10,rey_trial6_pres_instruct,17,listb_pres_instruct1,28,175,25,25,25,100,150,1,0,0,0,0,0,0,0,Now you are going to see a different list of words appear on the screen one by one.,28,0,3264
97,5.0.6.0,win,12217,0:24:57,10,10,rey_trial6_pres_instruct,17,listb_pres_instruct2,57,175,25,25,25,100,150,2,0,0,0,0,0,0,0,"Now you are going to see a different list of words appear on the screen one by one.    Once again, after the words have finished appearing on the screen you will be asked to type in as many of the words as you can remember, in any order that comes to mind.",57,0,4105
98,5.0.6.0,win,12217,0:24:57,10,10,rey_trial6_pres_instruct,17,rey_list_presentation_1b,57,175,25,25,25,100,150,2,0,0,0,0,0,0,0,"Now you are going to see a different list of words appear on the screen one by one.    Once again, after the words have finished appearing on the screen you will be asked to type in as many of the words as you can remember, in any order that comes to mind.",57,0,4105
99,5.0.6.0,win,12217,0:24:57,10,10,rey_trial6_recall,19,listb_recall_response1,fish,175,25,25,25,100,150,1,0,0,0,0,0,0,0,recallrect2_empty,fish,0,2476
100,5.0.6.0,win,12217,0:24:57,10,10,rey_trial6_recall,19,listb_recall_response2,church,175,25,25,25,100,150,2,0,0,0,0,0,0,0,recallrect1_full,church,0,3633
101,5.0.6.0,win,12217,0:24:57,10,10,rey_trial6_recall,19,listb_recall_response3,gun,175,25,25,25,100,150,3,0,0,0,0,0,0,0,recallrect1_full,gun,0,1021
102,5.0.6.0,win,12217,0:24:57,10,10,rey_trial6_recall,19,listb_recall_response4,pencil,175,25,25,25,100,150,4,0,0,0,0,0,0,0,recallrect1_full,pencil,0,1311
103,5.0.6.0,win,12217,0:24:57,10,10,rey_trial6_recall,19,listb_recall_response5,stove,175,25,25,25,100,150,5,0,0,0,0,0,0,0,recallrect1_full,stove,0,8788
104,5.0.6.0,win,12217,0:24:57,10,10,rey_trial6_recall,19,listb_recall_response6,bird,175,25,25,25,100,150,6,0,0,0,0,0,0,0,recallrect1_full,bird,0,5028
105,5.0.6.0,win,12217,0:24:57,10,10,rey_trial6_recall,19,listb_recall_response7,,175,25,25,25,100,150,7,0,0,0,0,0,0,0,recallrect1_full,,0,3514
106,5.0.6.0,win,12217,0:24:57,10,10,rey_trial7_pres_instruct,20,trial6_pres_instruct2,28,175,25,25,25,100,150,1,0,0,0,0,0,0,0,Remember the first list which you practiced learning multiple times?,28,0,3661
107,5.0.6.0,win,12217,0:24:57,10,10,rey_trial7_pres_instruct,20,trial6_pres_instruct3,28,175,25,25,25,100,150,2,0,0,0,0,0,0,0,Remember the first list which you practiced learning multiple times?   Please type in as many of those words as you can remember in any order that comes to mind.,28,0,1205
108,5.0.6.0,win,12217,0:24:57,10,10,rey_trial7_pres_instruct,20,rey_list_presentation_1a,28,175,25,25,25,100,150,2,0,0,0,0,0,0,0,Remember the first list which you practiced learning multiple times?   Please type in as many of those words as you can remember in any order that comes to mind.,28,0,1205
109,5.0.6.0,win,12217,0:24:57,10,10,rey_trial7_recall,21,trial6_recall_response1,house,175,25,25,25,100,150,1,0,0,0,0,0,0,0,recallrect2_empty,house,0,3178
110,5.0.6.0,win,12217,0:24:57,10,10,rey_trial7_recall,21,trial6_recall_response2,garden,175,25,25,25,100,150,2,0,0,0,0,0,0,0,recallrect1_full,garden,0,2024
111,5.0.6.0,win,12217,0:24:57,10,10,rey_trial7_recall,21,trial6_recall_response3,parent,175,25,25,25,100,150,3,0,0,0,0,0,0,0,recallrect1_full,parent,0,1582
112,5.0.6.0,win,12217,0:24:57,10,10,rey_trial7_recall,21,trial6_recall_response4,nose,175,25,25,25,100,150,4,0,0,0,0,0,0,0,recallrect1_full,nose,0,2039
113,5.0.6.0,win,12217,0:24:57,10,10,rey_trial7_recall,21,trial6_recall_response5,color,175,25,25,25,100,150,5,0,0,0,0,0,0,0,recallrect1_full,color,0,1714
114,5.0.6.0,win,12217,0:24:57,10,10,rey_trial7_recall,21,trial6_recall_response6,moon,175,25,25,25,100,150,6,0,0,0,0,0,0,0,recallrect1_full,moon,0,4797
115,5.0.6.0,win,12217,0:24:57,10,10,rey_trial7_recall,21,trial6_recall_response7,drum,175,25,25,25,100,150,7,0,0,0,0,0,0,0,recallrect1_full,drum,0,1872
116,5.0.6.0,win,12217,0:24:57,10,10,rey_trial7_recall,21,trial6_recall_response8,bell,175,25,25,25,100,150,8,0,0,0,0,0,0,0,recallrect1_full,bell,0,970
117,5.0.6.0,win,12217,0:24:57,10,10,rey_trial7_recall,21,trial6_recall_response9,hat,175,25,25,25,100,150,9,0,0,0,0,0,0,0,recallrect1_full,hat,0,1301
118,5.0.6.0,win,12217,0:24:57,10,10,rey_trial7_recall,21,trial6_recall_response10,parent,175,25,25,25,100,150,10,0,0,0,0,0,0,0,recallrect1_full,parent,0,12954
119,5.0.6.0,win,12217,0:24:57,10,10,rey_trial7_recall,21,trial6_recall_response11,,175,25,25,25,100,150,11,0,0,0,0,0,0,0,recallrect1_full,,0,8365
120,5.0.6.0,win,12217,0:24:57,10,10,axcpt,22,task2_instruct2,0,175,25,25,25,100,150,1,0,0,0,0,0,0,0,task2_instruct2.png,0,0,1500
121,5.0.6.0,win,12217,0:24:57,10,10,axcpt,22,task2_instruct3,28,175,25,25,25,100,150,2,0,0,0,0,0,0,0,task2_instruct3.png,28,0,6482
122,5.0.6.0,win,12217,0:24:57,10,10,axcpt,22,task2_instruct3,28,175,25,25,25,100,150,3,0,0,0,0,0,0,0,task2_instruct3.png,28,0,1833
123,5.0.6.0,win,12217,0:24:57,10,10,axcpt,22,task2_instruct3,57,175,25,25,25,100,150,4,0,0,0,0,0,0,0,task2_instruct3.png,57,0,132
124,5.0.6.0,win,12217,0:24:57,10,10,axcpt,22,task2_instruct4,0,175,25,25,25,100,150,5,0,0,0,0,0,0,0,task2_instruct4.png,0,0,500
125,5.0.6.0,win,12217,0:24:57,10,10,axcpt,22,task2_instruct5,0,175,25,25,25,100,150,6,0,0,0,0,0,0,0,task2_instruct5.png,0,0,500
126,5.0.6.0,win,12217,0:24:57,10,10,axcpt,22,task2_instruct6,0,175,25,25,25,100,150,7,0,0,0,0,0,0,0,task2_instruct6.png,0,0,500
127,5.0.6.0,win,12217,0:24:57,10,10,axcpt,22,task2_instruct7,0,175,25,25,25,100,150,8,0,0,0,0,0,0,0,task2_instruct7.png,0,0,500
128,5.0.6.0,win,12217,0:24:57,10,10,axcpt,22,task2_instruct8,0,175,25,25,25,100,150,9,0,0,0,0,0,0,0,task2_instruct8.png,0,0,500
129,5.0.6.0,win,12217,0:24:57,10,10,axcpt,22,task2_instruct9,0,175,25,25,25,100,150,10,0,0,0,0,0,0,0,task2_instruct9.png,0,0,500
130,5.0.6.0,win,12217,0:24:57,10,10,axcpt,22,task2_instruct10,0,175,25,25,25,100,150,11,0,0,0,0,0,0,0,task2_instruct10.png,0,0,500
131,5.0.6.0,win,12217,0:24:57,10,10,axcpt,22,task2_instruct11,57,175,25,25,25,100,150,12,0,0,0,0,0,0,0,task2_instruct11.png,57,0,3967
132,5.0.6.0,win,12217,0:24:57,10,10,axcpt,22,task2_instruct12,57,175,25,25,25,100,150,13,0,0,0,0,0,0,0,task2_instruct12.png,57,0,9714
133,5.0.6.0,win,12217,0:24:57,10,10,axcpt,22,task2_instruct13,57,175,25,25,25,100,150,14,0,0,0,0,0,0,0,task2_instruct13.png,57,0,10969
134,5.0.6.0,win,12217,0:24:57,10,10,axcpt,22,task2_instruct14,57,175,25,25,25,100,150,15,0,0,0,0,0,0,0,task2_instruct14.png,57,0,5919
135,5.0.6.0,win,12217,0:24:57,10,10,axcpt,22,task2_instruct15,57,175,25,25,25,100,150,16,0,0,0,0,0,0,0,task2_instruct15.png,57,0,5113
136,5.0.6.0,win,12217,0:24:57,10,10,axcpt,22,task2_instruct16,57,175,25,25,25,100,150,17,0,0,0,0,0,0,0,task2_instruct16.png,57,0,4509
137,5.0.6.0,win,12217,0:24:57,10,10,axcpt,22,task2_instruct17,57,175,25,25,25,100,150,18,0,0,0,0,0,0,0,task2_instruct17.png,57,0,2117
138,5.0.6.0,win,12217,0:24:57,10,10,axcpt,22,task2_instruct18,57,175,25,25,25,100,150,19,0,0,0,0,0,0,0,task2_instruct18.png,57,0,2483
139,5.0.6.0,win,12217,0:24:57,10,10,axcpt,22,task2_instruct19,57,175,25,25,25,100,150,20,0,0,0,0,0,0,0,task2_instruct19.png,57,0,10536
140,5.0.6.0,win,12217,0:24:57,10,10,axcpt,22,trialselector,0,175,25,25,25,100,150,22,0,2,0,0,0,0,0,0,0,0,0
141,5.0.6.0,win,12217,0:24:57,10,10,axcpt,22,AY,0,175,25,25,25,100,150,23,1,2,1,A,I,F,V,A,0,0,1200
142,5.0.6.0,win,12217,0:24:57,10,10,axcpt,22,ISI_probe,0,175,25,25,25,100,150,24,1,2,1,A,I,F,V,0,0,0,0
143,5.0.6.0,win,12217,0:24:57,10,10,axcpt,22,trialselector,0,175,25,25,25,100,150,25,1,1,1,A,I,F,V,0,0,0,0
144,5.0.6.0,win,12217,0:24:57,10,10,axcpt,22,AX,0,175,25,25,25,100,150,26,2,1,1,A,F,O,X,A,0,0,1200
145,5.0.6.0,win,12217,0:24:57,10,10,axcpt,22,ISI_probe,0,175,25,25,25,100,150,27,2,1,1,A,F,O,X,0,0,0,0
146,5.0.6.0,win,12217,0:24:57,10,10,axcpt,22,trialselector,0,175,25,25,25,100,150,28,2,1,1,A,F,O,X,0,0,0,0
147,5.0.6.0,win,12217,0:24:57,10,10,axcpt,22,AX,0,175,25,25,25,100,150,29,3,1,1,A,Q,J,X,A,0,0,1200
148,5.0.6.0,win,12217,0:24:57,10,10,axcpt,22,ISI_probe,0,175,25,25,25,100,150,30,3,1,1,A,Q,J,X,0,0,0,0
149,5.0.6.0,win,12217,0:24:57,10,10,axcpt,22,trialselector,0,175,25,25,25,100,150,31,3,2,1,A,Q,J,X,0,0,0,0
150,5.0.6.0,win,12217,0:24:57,10,10,axcpt,22,AY,0,175,25,25,25,100,150,32,4,2,1,A,F,H,E,A,0,0,1200
151,5.0.6.0,win,12217,0:24:57,10,10,axcpt,22,ISI_probe,0,175,25,25,25,100,150,33,4,2,1,A,F,H,E,0,0,0,0
152,5.0.6.0,win,12217,0:24:57,10,10,axcpt,22,trialselector,0,175,25,25,25,100,150,34,4,2,1,A,F,H,E,0,0,0,0
153,5.0.6.0,win,12217,0:24:57,10,10,axcpt,22,AY,0,175,25,25,25,100,150,35,5,2,1,A,F,Q,V,A,0,0,1200
154,5.0.6.0,win,12217,0:24:57,10,10,axcpt,22,ISI_probe,0,175,25,25,25,100,150,36,5,2,1,A,F,Q,V,0,0,0,0
155,5.0.6.0,win,12217,0:24:57,10,10,axcpt,22,trialselector,0,175,25,25,25,100,150,37,5,2,1,A,F,Q,V,0,0,0,0
156,5.0.6.0,win,12217,0:24:57,10,10,axcpt,22,AY,0,175,25,25,25,100,150,38,6,2,1,A,S,G,O,A,0,0,1200
157,5.0.6.0,win,12217,0:24:57,10,10,axcpt,22,ISI_probe,0,175,25,25,25,100,150,39,6,2,1,A,S,G,O,0,0,0,0
158,5.0.6.0,win,12217,0:24:57,10,10,axcpt,22,trialselector,0,175,25,25,25,100,150,40,6,1,1,A,S,G,O,0,0,0,0
159,5.0.6.0,win,12217,0:24:57,10,10,axcpt,22,AX,0,175,25,25,25,100,150,41,7,1,1,A,R,L,X,A,0,0,1200
160,5.0.6.0,win,12217,0:24:57,10,10,axcpt,22,ISI_probe,0,175,25,25,25,100,150,42,7,1,1,A,R,L,X,0,0,0,0
161,5.0.6.0,win,12217,0:24:57,10,10,axcpt,22,trialselector,0,175,25,25,25,100,150,43,7,1,1,A,R,L,X,0,0,0,0
162,5.0.6.0,win,12217,0:24:57,10,10,axcpt,22,AX,0,175,25,25,25,100,150,44,8,1,1,A,U,S,X,A,0,0,1200
163,5.0.6.0,win,12217,0:24:57,10,10,axcpt,22,ISI_probe,0,175,25,25,25,100,150,45,8,1,1,A,U,S,X,0,0,0,0
164,5.0.6.0,win,12217,0:24:57,10,10,axcpt,22,trialselector,0,175,25,25,25,100,150,46,8,1,1,A,U,S,X,0,0,0,0
165,5.0.6.0,win,12217,0:24:57,10,10,axcpt,22,AX,0,175,25,25,25,100,150,47,9,1,1,A,V,C,X,A,0,0,1200
166,5.0.6.0,win,12217,0:24:57,10,10,axcpt,22,ISI_probe,0,175,25,25,25,100,150,48,9,1,1,A,V,C,X,0,0,0,0
167,5.0.6.0,win,12217,0:24:57,10,10,axcpt,22,trialselector,0,175,25,25,25,100,150,49,9,3,1,A,V,C,X,0,0,0,0
168,5.0.6.0,win,12217,0:24:57,10,10,axcpt,22,BX,0,175,25,25,25,100,150,50,10,3,1,L,S,C,X,L,0,0,1200
169,5.0.6.0,win,12217,0:24:57,10,10,axcpt,22,ISI_probe,0,175,25,25,25,100,150,51,10,3,1,L,S,C,X,0,0,0,0
170,5.0.6.0,win,12217,0:24:57,10,10,axcpt,22,trialselector,0,175,25,25,25,100,150,52,10,1,1,L,S,C,X,0,0,0,0
171,5.0.6.0,win,12217,0:24:57,10,10,axcpt,22,AX,0,175,25,25,25,100,150,53,11,1,1,A,D,M,X,A,0,0,1200
172,5.0.6.0,win,12217,0:24:57,10,10,axcpt,22,ISI_probe,0,175,25,25,25,100,150,54,11,1,1,A,D,M,X,0,0,0,0
173,5.0.6.0,win,12217,0:24:57,10,10,axcpt,22,trialselector,0,175,25,25,25,100,150,55,11,1,1,A,D,M,X,0,0,0,0
174,5.0.6.0,win,12217,0:24:57,10,10,axcpt,22,AX,0,175,25,25,25,100,150,56,12,1,1,A,B,N,X,A,0,0,1200
175,5.0.6.0,win,12217,0:24:57,10,10,axcpt,22,ISI_probe,0,175,25,25,25,100,150,57,12,1,1,A,B,N,X,0,0,0,0
176,5.0.6.0,win,12217,0:24:57,10,10,axcpt,22,trialselector,0,175,25,25,25,100,150,58,12,1,1,A,B,N,X,0,0,0,0
177,5.0.6.0,win,12217,0:24:57,10,10,axcpt,22,AX,0,175,25,25,25,100,150,59,13,1,1,A,O,V,X,A,0,0,1200
178,5.0.6.0,win,12217,0:24:57,10,10,axcpt,22,ISI_probe,0,175,25,25,25,100,150,60,13,1,1,A,O,V,X,0,0,0,0
179,5.0.6.0,win,12217,0:24:57,10,10,axcpt,22,trialselector,0,175,25,25,25,100,150,61,13,1,1,A,O,V,X,0,0,0,0
180,5.0.6.0,win,12217,0:24:57,10,10,axcpt,22,AX,0,175,25,25,25,100,150,62,14,1,1,A,Z,L,X,A,0,0,1200
181,5.0.6.0,win,12217,0:24:57,10,10,axcpt,22,ISI_probe,0,175,25,25,25,100,150,63,14,1,1,A,Z,L,X,0,0,0,0
182,5.0.6.0,win,12217,0:24:57,10,10,axcpt,22,trialselector,0,175,25,25,25,100,150,64,14,1,1,A,Z,L,X,0,0,0,0
183,5.0.6.0,win,12217,0:24:57,10,10,axcpt,22,AX,0,175,25,25,25,100,150,65,15,1,1,A,C,P,X,A,0,0,1200
184,5.0.6.0,win,12217,0:24:57,10,10,axcpt,22,ISI_probe,0,175,25,25,25,100,150,66,15,1,1,A,C,P,X,0,0,0,0
185,5.0.6.0,win,12217,0:24:57,10,10,axcpt,22,trialselector,0,175,25,25,25,100,150,67,15,1,1,A,C,P,X,0,0,0,0
186,5.0.6.0,win,12217,0:24:57,10,10,axcpt,22,AX,0,175,25,25,25,100,150,68,16,1,1,A,C,O,X,A,0,0,1200
187,5.0.6.0,win,12217,0:24:57,10,10,axcpt,22,ISI_probe,0,175,25,25,25,100,150,69,16,1,1,A,C,O,X,0,0,0,0
188,5.0.6.0,win,12217,0:24:57,10,10,axcpt,22,trialselector,0,175,25,25,25,100,150,70,16,1,1,A,C,O,X,0,0,0,0
189,5.0.6.0,win,12217,0:24:57,10,10,axcpt,22,AX,0,175,25,25,25,100,150,71,17,1,1,A,E,B,X,A,0,0,1200
190,5.0.6.0,win,12217,0:24:57,10,10,axcpt,22,ISI_probe,0,175,25,25,25,100,150,72,17,1,1,A,E,B,X,0,0,0,0
191,5.0.6.0,win,12217,0:24:57,10,10,axcpt,22,trialselector,0,175,25,25,25,100,150,73,17,1,1,A,E,B,X,0,0,0,0
192,5.0.6.0,win,12217,0:24:57,10,10,axcpt,22,AX,0,175,25,25,25,100,150,74,18,1,1,A,Q,J,X,A,0,0,1200
193,5.0.6.0,win,12217,0:24:57,10,10,axcpt,22,ISI_probe,0,175,25,25,25,100,150,75,18,1,1,A,Q,J,X,0,0,0,0
194,5.0.6.0,win,12217,0:24:57,10,10,axcpt,22,trialselector,0,175,25,25,25,100,150,76,18,1,1,A,Q,J,X,0,0,0,0
195,5.0.6.0,win,12217,0:24:57,10,10,axcpt,22,AX,0,175,25,25,25,100,150,77,19,1,1,A,Z,H,X,A,0,0,1200
196,5.0.6.0,win,12217,0:24:57,10,10,axcpt,22,ISI_probe,0,175,25,25,25,100,150,78,19,1,1,A,Z,H,X,0,0,0,0
197,5.0.6.0,win,12217,0:24:57,10,10,axcpt,22,trialselector,0,175,25,25,25,100,150,79,19,1,1,A,Z,H,X,0,0,0,0
198,5.0.6.0,win,12217,0:24:57,10,10,axcpt,22,AX,0,175,25,25,25,100,150,80,20,1,1,A,F,T,X,A,0,0,1200
199,5.0.6.0,win,12217,0:24:57,10,10,axcpt,22,ISI_probe,0,175,25,25,25,100,150,81,20,1,1,A,F,T,X,0,0,0,0
200,5.0.6.0,win,12217,0:24:57,10,10,axcpt,22,trialselector,0,175,25,25,25,100,150,82,20,1,1,A,F,T,X,0,0,0,0
201,5.0.6.0,win,12217,0:24:57,10,10,axcpt,22,AX,0,175,25,25,25,100,150,83,21,1,1,A,T,J,X,A,0,0,1200
202,5.0.6.0,win,12217,0:24:57,10,10,axcpt,22,ISI_probe,0,175,25,25,25,100,150,84,21,1,1,A,T,J,X,0,0,0,0
203,5.0.6.0,win,12217,0:24:57,10,10,axcpt,22,trialselector,0,175,25,25,25,100,150,85,21,1,1,A,T,J,X,0,0,0,0
204,5.0.6.0,win,12217,0:24:57,10,10,axcpt,22,AX,0,175,25,25,25,100,150,86,22,1,1,A,U,J,X,A,0,0,1200
205,5.0.6.0,win,12217,0:24:57,10,10,axcpt,22,ISI_probe,0,175,25,25,25,100,150,87,22,1,1,A,U,J,X,0,0,0,0
206,5.0.6.0,win,12217,0:24:57,10,10,axcpt,22,trialselector,0,175,25,25,25,100,150,88,22,4,1,A,U,J,X,0,0,0,0
207,5.0.6.0,win,12217,0:24:57,10,10,axcpt,22,BY,0,175,25,25,25,100,150,89,23,4,1,P,R,Q,H,P,0,0,1200
208,5.0.6.0,win,12217,0:24:57,10,10,axcpt,22,ISI_probe,0,175,25,25,25,100,150,90,23,4,1,P,R,Q,H,0,0,0,0
209,5.0.6.0,win,12217,0:24:57,10,10,axcpt,22,trialselector,0,175,25,25,25,100,150,91,23,1,1,P,R,Q,H,0,0,0,0
210,5.0.6.0,win,12217,0:24:57,10,10,axcpt,22,AX,0,175,25,25,25,100,150,92,24,1,1,A,J,D,X,A,0,0,1200
211,5.0.6.0,win,12217,0:24:57,10,10,axcpt,22,ISI_probe,0,175,25,25,25,100,150,93,24,1,1,A,J,D,X,0,0,0,0
212,5.0.6.0,win,12217,0:24:57,10,10,axcpt,22,trialselector,0,175,25,25,25,100,150,94,24,3,1,A,J,D,X,0,0,0,0
213,5.0.6.0,win,12217,0:24:57,10,10,axcpt,22,BX,0,175,25,25,25,100,150,95,25,3,1,P,Z,J,X,P,0,0,1200
214,5.0.6.0,win,12217,0:24:57,10,10,axcpt,22,ISI_probe,0,175,25,25,25,100,150,96,25,3,1,P,Z,J,X,0,0,0,0
215,5.0.6.0,win,12217,0:24:57,10,10,axcpt,22,trialselector,0,175,25,25,25,100,150,97,25,3,1,P,Z,J,X,0,0,0,0
216,5.0.6.0,win,12217,0:24:57,10,10,axcpt,22,BX,0,175,25,25,25,100,150,98,26,3,1,Q,O,D,X,Q,0,0,1200
217,5.0.6.0,win,12217,0:24:57,10,10,axcpt,22,ISI_probe,0,175,25,25,25,100,150,99,26,3,1,Q,O,D,X,0,0,0,0
218,5.0.6.0,win,12217,0:24:57,10,10,axcpt,22,trialselector,0,175,25,25,25,100,150,100,26,1,1,Q,O,D,X,0,0,0,0
219,5.0.6.0,win,12217,0:24:57,10,10,axcpt,22,AX,0,175,25,25,25,100,150,101,27,1,1,A,L,V,X,A,0,0,1200
220,5.0.6.0,win,12217,0:24:57,10,10,axcpt,22,ISI_probe,0,175,25,25,25,100,150,102,27,1,1,A,L,V,X,0,0,0,0
221,5.0.6.0,win,12217,0:24:57,10,10,axcpt,22,trialselector,0,175,25,25,25,100,150,103,27,3,1,A,L,V,X,0,0,0,0
222,5.0.6.0,win,12217,0:24:57,10,10,axcpt,22,BX,0,175,25,25,25,100,150,104,28,3,1,J,G,Z,X,J,0,0,1200
223,5.0.6.0,win,12217,0:24:57,10,10,axcpt,22,ISI_probe,0,175,25,25,25,100,150,105,28,3,1,J,G,Z,X,0,0,0,0
224,5.0.6.0,win,12217,0:24:57,10,10,axcpt,22,trialselector,0,175,25,25,25,100,150,106,28,1,1,J,G,Z,X,0,0,0,0
225,5.0.6.0,win,12217,0:24:57,10,10,axcpt,22,AX,0,175,25,25,25,100,150,107,29,1,1,A,G,D,X,A,0,0,1200
226,5.0.6.0,win,12217,0:24:57,10,10,axcpt,22,ISI_probe,0,175,25,25,25,100,150,108,29,1,1,A,G,D,X,0,0,0,0
227,5.0.6.0,win,12217,0:24:57,10,10,axcpt,22,trialselector,0,175,25,25,25,100,150,109,29,1,1,A,G,D,X,0,0,0,0
228,5.0.6.0,win,12217,0:24:57,10,10,axcpt,22,AX,0,175,25,25,25,100,150,110,30,1,1,A,N,B,X,A,0,0,1200
229,5.0.6.0,win,12217,0:24:57,10,10,axcpt,22,ISI_probe,0,175,25,25,25,100,150,111,30,1,1,A,N,B,X,0,0,0,0
230,5.0.6.0,win,12217,0:24:57,10,10,axcpt,22,trialselector,0,175,25,25,25,100,150,112,30,1,1,A,N,B,X,0,0,0,0
231,5.0.6.0,win,12217,0:24:57,10,10,axcpt,22,AX,0,175,25,25,25,100,150,113,31,1,1,A,G,F,X,A,0,0,1200
232,5.0.6.0,win,12217,0:24:57,10,10,axcpt,22,ISI_probe,0,175,25,25,25,100,150,114,31,1,1,A,G,F,X,0,0,0,0
233,5.0.6.0,win,12217,0:24:57,10,10,axcpt,22,trialselector,0,175,25,25,25,100,150,115,31,1,1,A,G,F,X,0,0,0,0
234,5.0.6.0,win,12217,0:24:57,10,10,axcpt,22,AX,0,175,25,25,25,100,150,116,32,1,1,A,L,I,X,A,0,0,1200
235,5.0.6.0,win,12217,0:24:57,10,10,axcpt,22,ISI_probe,0,175,25,25,25,100,150,117,32,1,1,A,L,I,X,0,0,0,0
236,5.0.6.0,win,12217,0:24:57,10,10,axcpt,22,trialselector,0,175,25,25,25,100,150,118,32,1,1,A,L,I,X,0,0,0,0
237,5.0.6.0,win,12217,0:24:57,10,10,axcpt,22,AX,0,175,25,25,25,100,150,119,33,1,1,A,C,S,X,A,0,0,1200
238,5.0.6.0,win,12217,0:24:57,10,10,axcpt,22,ISI_probe,0,175,25,25,25,100,150,120,33,1,1,A,C,S,X,0,0,0,0
239,5.0.6.0,win,12217,0:24:57,10,10,axcpt,22,trialselector,0,175,25,25,25,100,150,121,33,1,1,A,C,S,X,0,0,0,0
240,5.0.6.0,win,12217,0:24:57,10,10,axcpt,22,AX,0,175,25,25,25,100,150,122,34,1,1,A,P,E,X,A,0,0,1200
241,5.0.6.0,win,12217,0:24:57,10,10,axcpt,22,ISI_probe,0,175,25,25,25,100,150,123,34,1,1,A,P,E,X,0,0,0,0
242,5.0.6.0,win,12217,0:24:57,10,10,axcpt,22,trialselector,0,175,25,25,25,100,150,124,34,3,1,A,P,E,X,0,0,0,0
243,5.0.6.0,win,12217,0:24:57,10,10,axcpt,22,BX,0,175,25,25,25,100,150,125,35,3,1,F,I,R,X,F,0,0,1200
244,5.0.6.0,win,12217,0:24:57,10,10,axcpt,22,ISI_probe,0,175,25,25,25,100,150,126,35,3,1,F,I,R,X,0,0,0,0
245,5.0.6.0,win,12217,0:24:57,10,10,axcpt,22,trialselector,0,175,25,25,25,100,150,127,35,4,1,F,I,R,X,0,0,0,0
246,5.0.6.0,win,12217,0:24:57,10,10,axcpt,22,BY,0,175,25,25,25,100,150,128,36,4,1,H,S,D,B,H,0,0,1200
247,5.0.6.0,win,12217,0:24:57,10,10,axcpt,22,ISI_probe,0,175,25,25,25,100,150,129,36,4,1,H,S,D,B,0,0,0,0
248,5.0.6.0,win,12217,0:24:57,10,10,axcpt,22,trialselector,0,175,25,25,25,100,150,130,36,1,1,H,S,D,B,0,0,0,0
249,5.0.6.0,win,12217,0:24:57,10,10,axcpt,22,AX,0,175,25,25,25,100,150,131,37,1,1,A,O,Z,X,A,0,0,1200
250,5.0.6.0,win,12217,0:24:57,10,10,axcpt,22,ISI_probe,0,175,25,25,25,100,150,132,37,1,1,A,O,Z,X,0,0,0,0
251,5.0.6.0,win,12217,0:24:57,10,10,axcpt,22,trialselector,0,175,25,25,25,100,150,133,37,1,1,A,O,Z,X,0,0,0,0
252,5.0.6.0,win,12217,0:24:57,10,10,axcpt,22,AX,0,175,25,25,25,100,150,134,38,1,1,A,N,C,X,A,0,0,1200
253,5.0.6.0,win,12217,0:24:57,10,10,axcpt,22,ISI_probe,0,175,25,25,25,100,150,135,38,1,1,A,N,C,X,0,0,0,0
254,5.0.6.0,win,12217,0:24:57,10,10,axcpt,22,trialselector,0,175,25,25,25,100,150,136,38,1,1,A,N,C,X,0,0,0,0
255,5.0.6.0,win,12217,0:24:57,10,10,axcpt,22,AX,0,175,25,25,25,100,150,137,39,1,1,A,R,J,X,A,0,0,1200
256,5.0.6.0,win,12217,0:24:57,10,10,axcpt,22,ISI_probe,0,175,25,25,25,100,150,138,39,1,1,A,R,J,X,0,0,0,0
257,5.0.6.0,win,12217,0:24:57,10,10,axcpt,22,trialselector,0,175,25,25,25,100,150,139,39,1,1,A,R,J,X,0,0,0,0
258,5.0.6.0,win,12217,0:24:57,10,10,axcpt,22,AX,0,175,25,25,25,100,150,140,40,1,1,A,H,R,X,A,0,0,1200
259,5.0.6.0,win,12217,0:24:57,10,10,axcpt,22,ISI_probe,0,175,25,25,25,100,150,141,40,1,1,A,H,R,X,0,0,0,0
260,5.0.6.0,win,12217,0:24:57,10,10,axcpt,22,trialselector,0,175,25,25,25,100,150,142,40,1,1,A,H,R,X,0,0,0,0
261,5.0.6.0,win,12217,0:24:57,10,10,axcpt,22,AX,0,175,25,25,25,100,150,143,41,1,1,A,F,G,X,A,0,0,1200
262,5.0.6.0,win,12217,0:24:57,10,10,axcpt,22,ISI_probe,0,175,25,25,25,100,150,144,41,1,1,A,F,G,X,0,0,0,0
263,5.0.6.0,win,12217,0:24:57,10,10,axcpt,22,trialselector,0,175,25,25,25,100,150,145,41,3,1,A,F,G,X,0,0,0,0
264,5.0.6.0,win,12217,0:24:57,10,10,axcpt,22,BX,0,175,25,25,25,100,150,146,42,3,1,P,H,O,X,P,0,0,1200
265,5.0.6.0,win,12217,0:24:57,10,10,axcpt,22,ISI_probe,0,175,25,25,25,100,150,147,42,3,1,P,H,O,X,0,0,0,0
266,5.0.6.0,win,12217,0:24:57,10,10,axcpt,22,trialselector,0,175,25,25,25,100,150,148,42,1,1,P,H,O,X,0,0,0,0
267,5.0.6.0,win,12217,0:24:57,10,10,axcpt,22,AX,0,175,25,25,25,100,150,149,43,1,1,A,C,E,X,A,0,0,1200
268,5.0.6.0,win,12217,0:24:57,10,10,axcpt,22,ISI_probe,0,175,25,25,25,100,150,150,43,1,1,A,C,E,X,0,0,0,0
269,5.0.6.0,win,12217,0:24:57,10,10,axcpt,22,trialselector,0,175,25,25,25,100,150,151,43,2,1,A,C,E,X,0,0,0,0
270,5.0.6.0,win,12217,0:24:57,10,10,axcpt,22,AY,0,175,25,25,25,100,150,152,44,2,1,A,U,Q,S,A,0,0,1200
271,5.0.6.0,win,12217,0:24:57,10,10,axcpt,22,ISI_probe,0,175,25,25,25,100,150,153,44,2,1,A,U,Q,S,0,0,0,0
272,5.0.6.0,win,12217,0:24:57,10,10,axcpt,22,trialselector,0,175,25,25,25,100,150,154,44,1,1,A,U,Q,S,0,0,0,0
273,5.0.6.0,win,12217,0:24:57,10,10,axcpt,22,AX,0,175,25,25,25,100,150,155,45,1,1,A,N,J,X,A,0,0,1200
274,5.0.6.0,win,12217,0:24:57,10,10,axcpt,22,ISI_probe,0,175,25,25,25,100,150,156,45,1,1,A,N,J,X,0,0,0,0
275,5.0.6.0,win,12217,0:24:57,10,10,axcpt,22,trialselector,0,175,25,25,25,100,150,157,45,1,1,A,N,J,X,0,0,0,0
276,5.0.6.0,win,12217,0:24:57,10,10,axcpt,22,AX,0,175,25,25,25,100,150,158,46,1,1,A,L,M,X,A,0,0,1200
277,5.0.6.0,win,12217,0:24:57,10,10,axcpt,22,ISI_probe,0,175,25,25,25,100,150,159,46,1,1,A,L,M,X,0,0,0,0
278,5.0.6.0,win,12217,0:24:57,10,10,axcpt,22,trialselector,0,175,25,25,25,100,150,160,46,2,1,A,L,M,X,0,0,0,0
279,5.0.6.0,win,12217,0:24:57,10,10,axcpt,22,AY,0,175,25,25,25,100,150,161,47,2,1,A,I,M,G,A,0,0,1200
280,5.0.6.0,win,12217,0:24:57,10,10,axcpt,22,ISI_probe,0,175,25,25,25,100,150,162,47,2,1,A,I,M,G,0,0,0,0
281,5.0.6.0,win,12217,0:24:57,10,10,axcpt,22,trialselector,0,175,25,25,25,100,150,163,47,1,1,A,I,M,G,0,0,0,0
282,5.0.6.0,win,12217,0:24:57,10,10,axcpt,22,AX,0,175,25,25,25,100,150,164,48,1,1,A,N,G,X,A,0,0,1200
283,5.0.6.0,win,12217,0:24:57,10,10,axcpt,22,ISI_probe,0,175,25,25,25,100,150,165,48,1,1,A,N,G,X,0,0,0,0
284,5.0.6.0,win,12217,0:24:57,10,10,axcpt,22,trialselector,0,175,25,25,25,100,150,166,48,1,1,A,N,G,X,0,0,0,0
285,5.0.6.0,win,12217,0:24:57,10,10,axcpt,22,AX,0,175,25,25,25,100,150,167,49,1,1,A,L,V,X,A,0,0,1200
286,5.0.6.0,win,12217,0:24:57,10,10,axcpt,22,ISI_probe,0,175,25,25,25,100,150,168,49,1,1,A,L,V,X,0,0,0,0
287,5.0.6.0,win,12217,0:24:57,10,10,axcpt,22,trialselector,0,175,25,25,25,100,150,169,49,4,1,A,L,V,X,0,0,0,0
288,5.0.6.0,win,12217,0:24:57,10,10,axcpt,22,BY,0,175,25,25,25,100,150,170,50,4,1,Z,D,P,J,Z,0,0,1200
289,5.0.6.0,win,12217,0:24:57,10,10,axcpt,22,ISI_probe,0,175,25,25,25,100,150,171,50,4,1,Z,D,P,J,0,0,0,0
290,5.0.6.0,win,12217,0:24:57,10,10,axcpt,22,trialselector,0,175,25,25,25,100,150,172,50,1,1,Z,D,P,J,0,0,0,0
291,5.0.6.0,win,12217,0:24:57,10,10,axcpt,22,AX,0,175,25,25,25,100,150,173,51,1,1,A,S,Z,X,A,0,0,1200
292,5.0.6.0,win,12217,0:24:57,10,10,axcpt,22,ISI_probe,0,175,25,25,25,100,150,174,51,1,1,A,S,Z,X,0,0,0,0
293,5.0.6.0,win,12217,0:24:57,10,10,axcpt,22,trialselector,0,175,25,25,25,100,150,175,51,4,1,A,S,Z,X,0,0,0,0
294,5.0.6.0,win,12217,0:24:57,10,10,axcpt,22,BY,0,175,25,25,25,100,150,176,52,4,1,M,E,O,Z,M,0,0,1200
295,5.0.6.0,win,12217,0:24:57,10,10,axcpt,22,ISI_probe,0,175,25,25,25,100,150,177,52,4,1,M,E,O,Z,0,0,0,0
296,5.0.6.0,win,12217,0:24:57,10,10,axcpt,22,trialselector,0,175,25,25,25,100,150,178,52,1,1,M,E,O,Z,0,0,0,0
297,5.0.6.0,win,12217,0:24:57,10,10,axcpt,22,AX,0,175,25,25,25,100,150,179,53,1,1,A,U,D,X,A,0,0,1200
298,5.0.6.0,win,12217,0:24:57,10,10,axcpt,22,ISI_probe,0,175,25,25,25,100,150,180,53,1,1,A,U,D,X,0,0,0,0
299,5.0.6.0,win,12217,0:24:57,10,10,axcpt,22,trialselector,0,175,25,25,25,100,150,181,53,1,1,A,U,D,X,0,0,0,0
300,5.0.6.0,win,12217,0:24:57,10,10,axcpt,22,AX,0,175,25,25,25,100,150,182,54,1,1,A,R,U,X,A,0,0,1200
301,5.0.6.0,win,12217,0:24:57,10,10,axcpt,22,ISI_probe,0,175,25,25,25,100,150,183,54,1,1,A,R,U,X,0,0,0,0
302,5.0.6.0,win,12217,0:24:57,10,10,axcpt,22,trialselector,0,175,25,25,25,100,150,184,54,1,1,A,R,U,X,0,0,0,0
303,5.0.6.0,win,12217,0:24:57,10,10,axcpt,22,AX,0,175,25,25,25,100,150,185,55,1,1,A,B,D,X,A,0,0,1200
304,5.0.6.0,win,12217,0:24:57,10,10,axcpt,22,ISI_probe,0,175,25,25,25,100,150,186,55,1,1,A,B,D,X,0,0,0,0
305,5.0.6.0,win,12217,0:24:57,10,10,axcpt,22,trialselector,0,175,25,25,25,100,150,187,55,1,1,A,B,D,X,0,0,0,0
306,5.0.6.0,win,12217,0:24:57,10,10,axcpt,22,AX,0,175,25,25,25,100,150,188,56,1,1,A,S,B,X,A,0,0,1200
307,5.0.6.0,win,12217,0:24:57,10,10,axcpt,22,ISI_probe,0,175,25,25,25,100,150,189,56,1,1,A,S,B,X,0,0,0,0
308,5.0.6.0,win,12217,0:24:57,10,10,axcpt,22,trialselector,0,175,25,25,25,100,150,190,56,1,1,A,S,B,X,0,0,0,0
309,5.0.6.0,win,12217,0:24:57,10,10,axcpt,22,AX,0,175,25,25,25,100,150,191,57,1,1,A,J,F,X,A,0,0,1200
310,5.0.6.0,win,12217,0:24:57,10,10,axcpt,22,ISI_probe,0,175,25,25,25,100,150,192,57,1,1,A,J,F,X,0,0,0,0
311,5.0.6.0,win,12217,0:24:57,10,10,axcpt,22,trialselector,0,175,25,25,25,100,150,193,57,3,1,A,J,F,X,0,0,0,0
312,5.0.6.0,win,12217,0:24:57,10,10,axcpt,22,BX,0,175,25,25,25,100,150,194,58,3,1,P,J,M,X,P,0,0,1200
313,5.0.6.0,win,12217,0:24:57,10,10,axcpt,22,ISI_probe,0,175,25,25,25,100,150,195,58,3,1,P,J,M,X,0,0,0,0
314,5.0.6.0,win,12217,0:24:57,10,10,axcpt,22,trialselector,0,175,25,25,25,100,150,196,58,4,1,P,J,M,X,0,0,0,0
315,5.0.6.0,win,12217,0:24:57,10,10,axcpt,22,BY,0,175,25,25,25,100,150,197,59,4,1,N,O,M,Q,N,0,0,1200
316,5.0.6.0,win,12217,0:24:57,10,10,axcpt,22,ISI_probe,0,175,25,25,25,100,150,198,59,4,1,N,O,M,Q,0,0,0,0
317,5.0.6.0,win,12217,0:24:57,10,10,axcpt,22,trialselector,0,175,25,25,25,100,150,199,59,1,1,N,O,M,Q,0,0,0,0
318,5.0.6.0,win,12217,0:24:57,10,10,axcpt,22,AX,0,175,25,25,25,100,150,200,60,1,1,A,E,R,X,A,0,0,1200
319,5.0.6.0,win,12217,0:24:57,10,10,axcpt,22,ISI_probe,0,175,25,25,25,100,150,201,60,1,1,A,E,R,X,0,0,0,0
320,5.0.6.0,win,12217,0:24:57,10,10,axcpt,22,trialselector,0,175,25,25,25,100,150,202,60,1,1,A,E,R,X,0,0,0,0
321,5.0.6.0,win,12217,0:24:57,10,10,axcpt,22,AX,0,175,25,25,25,100,150,203,61,1,1,A,M,U,X,A,0,0,1200
322,5.0.6.0,win,12217,0:24:57,10,10,axcpt,22,ISI_probe,0,175,25,25,25,100,150,204,61,1,1,A,M,U,X,0,0,0,0
323,5.0.6.0,win,12217,0:24:57,10,10,axcpt,22,trialselector,0,175,25,25,25,100,150,205,61,1,1,A,M,U,X,0,0,0,0
324,5.0.6.0,win,12217,0:24:57,10,10,axcpt,22,AX,0,175,25,25,25,100,150,206,62,1,1,A,V,D,X,A,0,0,1200
325,5.0.6.0,win,12217,0:24:57,10,10,axcpt,22,ISI_probe,0,175,25,25,25,100,150,207,62,1,1,A,V,D,X,0,0,0,0
326,5.0.6.0,win,12217,0:24:57,10,10,axcpt,22,trialselector,0,175,25,25,25,100,150,208,62,1,1,A,V,D,X,0,0,0,0
327,5.0.6.0,win,12217,0:24:57,10,10,axcpt,22,AX,0,175,25,25,25,100,150,209,63,1,1,A,N,L,X,A,0,0,1200
328,5.0.6.0,win,12217,0:24:57,10,10,axcpt,22,ISI_probe,0,175,25,25,25,100,150,210,63,1,1,A,N,L,X,0,0,0,0
329,5.0.6.0,win,12217,0:24:57,10,10,axcpt,22,trialselector,0,175,25,25,25,100,150,211,63,1,1,A,N,L,X,0,0,0,0
330,5.0.6.0,win,12217,0:24:57,10,10,axcpt,22,AX,0,175,25,25,25,100,150,212,64,1,1,A,E,B,X,A,0,0,1200
331,5.0.6.0,win,12217,0:24:57,10,10,axcpt,22,ISI_probe,0,175,25,25,25,100,150,213,64,1,1,A,E,B,X,0,0,0,0
332,5.0.6.0,win,12217,0:24:57,10,10,axcpt,22,trialselector,0,175,25,25,25,100,150,214,64,1,1,A,E,B,X,0,0,0,0
333,5.0.6.0,win,12217,0:24:57,10,10,axcpt,22,AX,0,175,25,25,25,100,150,215,65,1,1,A,N,H,X,A,0,0,1200
334,5.0.6.0,win,12217,0:24:57,10,10,axcpt,22,ISI_probe,0,175,25,25,25,100,150,216,65,1,1,A,N,H,X,0,0,0,0
335,5.0.6.0,win,12217,0:24:57,10,10,axcpt,22,trialselector,0,175,25,25,25,100,150,217,65,1,1,A,N,H,X,0,0,0,0
336,5.0.6.0,win,12217,0:24:57,10,10,axcpt,22,AX,0,175,25,25,25,100,150,218,66,1,1,A,P,T,X,A,0,0,1200
337,5.0.6.0,win,12217,0:24:57,10,10,axcpt,22,ISI_probe,0,175,25,25,25,100,150,219,66,1,1,A,P,T,X,0,0,0,0
338,5.0.6.0,win,12217,0:24:57,10,10,axcpt,22,trialselector,0,175,25,25,25,100,150,220,66,1,1,A,P,T,X,0,0,0,0
339,5.0.6.0,win,12217,0:24:57,10,10,axcpt,22,AX,0,175,25,25,25,100,150,221,67,1,1,A,F,E,X,A,0,0,1200
340,5.0.6.0,win,12217,0:24:57,10,10,axcpt,22,ISI_probe,0,175,25,25,25,100,150,222,67,1,1,A,F,E,X,0,0,0,0
341,5.0.6.0,win,12217,0:24:57,10,10,axcpt,22,trialselector,0,175,25,25,25,100,150,223,67,3,1,A,F,E,X,0,0,0,0
342,5.0.6.0,win,12217,0:24:57,10,10,axcpt,22,BX,0,175,25,25,25,100,150,224,68,3,1,N,F,R,X,N,0,0,1200
343,5.0.6.0,win,12217,0:24:57,10,10,axcpt,22,ISI_probe,0,175,25,25,25,100,150,225,68,3,1,N,F,R,X,0,0,0,0
344,5.0.6.0,win,12217,0:24:57,10,10,axcpt,22,trialselector,0,175,25,25,25,100,150,226,68,4,1,N,F,R,X,0,0,0,0
345,5.0.6.0,win,12217,0:24:57,10,10,axcpt,22,BY,0,175,25,25,25,100,150,227,69,4,1,R,G,C,F,R,0,0,1200
346,5.0.6.0,win,12217,0:24:57,10,10,axcpt,22,ISI_probe,0,175,25,25,25,100,150,228,69,4,1,R,G,C,F,0,0,0,0
347,5.0.6.0,win,12217,0:24:57,10,10,axcpt,22,trialselector,0,175,25,25,25,100,150,229,69,4,1,R,G,C,F,0,0,0,0
348,5.0.6.0,win,12217,0:24:57,10,10,axcpt,22,BY,0,175,25,25,25,100,150,230,70,4,1,U,C,F,J,U,0,0,1200
349,5.0.6.0,win,12217,0:24:57,10,10,axcpt,22,ISI_probe,0,175,25,25,25,100,150,231,70,4,1,U,C,F,J,0,0,0,0
350,5.0.6.0,win,12217,0:24:57,10,10,axcpt,22,trialselector,0,175,25,25,25,100,150,232,70,1,1,U,C,F,J,0,0,0,0
351,5.0.6.0,win,12217,0:24:57,10,10,axcpt,22,AX,0,175,25,25,25,100,150,233,71,1,1,A,J,U,X,A,0,0,1200
352,5.0.6.0,win,12217,0:24:57,10,10,axcpt,22,ISI_probe,0,175,25,25,25,100,150,234,71,1,1,A,J,U,X,0,0,0,0
353,5.0.6.0,win,12217,0:24:57,10,10,axcpt,22,trialselector,0,175,25,25,25,100,150,235,71,1,1,A,J,U,X,0,0,0,0
354,5.0.6.0,win,12217,0:24:57,10,10,axcpt,22,AX,0,175,25,25,25,100,150,236,72,1,1,A,B,U,X,A,0,0,1200
355,5.0.6.0,win,12217,0:24:57,10,10,axcpt,22,ISI_probe,0,175,25,25,25,100,150,237,72,1,1,A,B,U,X,0,0,0,0
356,5.0.6.0,win,12217,0:24:57,10,10,axcpt,22,trialselector,0,175,25,25,25,100,150,238,72,4,1,A,B,U,X,0,0,0,0
357,5.0.6.0,win,12217,0:24:57,10,10,axcpt,22,BY,0,175,25,25,25,100,150,239,73,4,1,Q,L,C,P,Q,0,0,1200
358,5.0.6.0,win,12217,0:24:57,10,10,axcpt,22,ISI_probe,0,175,25,25,25,100,150,240,73,4,1,Q,L,C,P,0,0,0,0
359,5.0.6.0,win,12217,0:24:57,10,10,axcpt,22,trialselector,0,175,25,25,25,100,150,241,73,1,1,Q,L,C,P,0,0,0,0
360,5.0.6.0,win,12217,0:24:57,10,10,axcpt,22,AX,0,175,25,25,25,100,150,242,74,1,1,A,V,F,X,A,0,0,1200
361,5.0.6.0,win,12217,0:24:57,10,10,axcpt,22,ISI_probe,0,175,25,25,25,100,150,243,74,1,1,A,V,F,X,0,0,0,0
362,5.0.6.0,win,12217,0:24:57,10,10,axcpt,22,trialselector,0,175,25,25,25,100,150,244,74,3,1,A,V,F,X,0,0,0,0
363,5.0.6.0,win,12217,0:24:57,10,10,axcpt,22,BX,0,175,25,25,25,100,150,245,75,3,1,C,B,L,X,C,0,0,1200
364,5.0.6.0,win,12217,0:24:57,10,10,axcpt,22,ISI_probe,0,175,25,25,25,100,150,246,75,3,1,C,B,L,X,0,0,0,0
365,5.0.6.0,win,12217,0:24:57,10,10,axcpt,22,trialselector,0,175,25,25,25,100,150,247,75,1,1,C,B,L,X,0,0,0,0
366,5.0.6.0,win,12217,0:24:57,10,10,axcpt,22,AX,0,175,25,25,25,100,150,248,76,1,1,A,B,U,X,A,0,0,1200
367,5.0.6.0,win,12217,0:24:57,10,10,axcpt,22,ISI_probe,0,175,25,25,25,100,150,249,76,1,1,A,B,U,X,0,0,0,0
368,5.0.6.0,win,12217,0:24:57,10,10,axcpt,22,trialselector,0,175,25,25,25,100,150,250,76,2,1,A,B,U,X,0,0,0,0
369,5.0.6.0,win,12217,0:24:57,10,10,axcpt,22,AY,0,175,25,25,25,100,150,251,77,2,1,A,T,F,E,A,0,0,1200
370,5.0.6.0,win,12217,0:24:57,10,10,axcpt,22,ISI_probe,0,175,25,25,25,100,150,252,77,2,1,A,T,F,E,0,0,0,0
371,5.0.6.0,win,12217,0:24:57,10,10,axcpt,22,trialselector,0,175,25,25,25,100,150,253,77,1,1,A,T,F,E,0,0,0,0
372,5.0.6.0,win,12217,0:24:57,10,10,axcpt,22,AX,0,175,25,25,25,100,150,254,78,1,1,A,V,U,X,A,0,0,1200
373,5.0.6.0,win,12217,0:24:57,10,10,axcpt,22,ISI_probe,0,175,25,25,25,100,150,255,78,1,1,A,V,U,X,0,0,0,0
374,5.0.6.0,win,12217,0:24:57,10,10,axcpt,22,trialselector,0,175,25,25,25,100,150,256,78,1,1,A,V,U,X,0,0,0,0
375,5.0.6.0,win,12217,0:24:57,10,10,axcpt,22,AX,0,175,25,25,25,100,150,257,79,1,1,A,L,Z,X,A,0,0,1200
376,5.0.6.0,win,12217,0:24:57,10,10,axcpt,22,ISI_probe,0,175,25,25,25,100,150,258,79,1,1,A,L,Z,X,0,0,0,0
377,5.0.6.0,win,12217,0:24:57,10,10,axcpt,22,trialselector,0,175,25,25,25,100,150,259,79,1,1,A,L,Z,X,0,0,0,0
378,5.0.6.0,win,12217,0:24:57,10,10,axcpt,22,AX,0,175,25,25,25,100,150,260,80,1,1,A,I,R,X,A,0,0,1200
379,5.0.6.0,win,12217,0:24:57,10,10,axcpt,22,ISI_probe,0,175,25,25,25,100,150,261,80,1,1,A,I,R,X,0,0,0,0
380,5.0.6.0,win,12217,0:24:57,10,10,axcpt,22,trialselector,0,175,25,25,25,100,150,262,80,1,1,A,I,R,X,0,0,0,0
381,5.0.6.0,win,12217,0:24:57,10,10,axcpt,22,AX,0,175,25,25,25,100,150,263,81,1,1,A,O,H,X,A,0,0,1200
382,5.0.6.0,win,12217,0:24:57,10,10,axcpt,22,ISI_probe,0,175,25,25,25,100,150,264,81,1,1,A,O,H,X,0,0,0,0
383,5.0.6.0,win,12217,0:24:57,10,10,axcpt,22,trialselector,0,175,25,25,25,100,150,265,81,2,1,A,O,H,X,0,0,0,0
384,5.0.6.0,win,12217,0:24:57,10,10,axcpt,22,AY,0,175,25,25,25,100,150,266,82,2,1,A,O,V,M,A,0,0,1200
385,5.0.6.0,win,12217,0:24:57,10,10,axcpt,22,ISI_probe,0,175,25,25,25,100,150,267,82,2,1,A,O,V,M,0,0,0,0
386,5.0.6.0,win,12217,0:24:57,10,10,axcpt,22,trialselector,0,175,25,25,25,100,150,268,82,2,1,A,O,V,M,0,0,0,0
387,5.0.6.0,win,12217,0:24:57,10,10,axcpt,22,AY,0,175,25,25,25,100,150,269,83,2,1,A,C,U,R,A,0,0,1200
388,5.0.6.0,win,12217,0:24:57,10,10,axcpt,22,ISI_probe,0,175,25,25,25,100,150,270,83,2,1,A,C,U,R,0,0,0,0
389,5.0.6.0,win,12217,0:24:57,10,10,axcpt,22,trialselector,0,175,25,25,25,100,150,271,83,4,1,A,C,U,R,0,0,0,0
390,5.0.6.0,win,12217,0:24:57,10,10,axcpt,22,BY,0,175,25,25,25,100,150,272,84,4,1,E,O,L,C,E,0,0,1200
391,5.0.6.0,win,12217,0:24:57,10,10,axcpt,22,ISI_probe,0,175,25,25,25,100,150,273,84,4,1,E,O,L,C,0,0,0,0
392,5.0.6.0,win,12217,0:24:57,10,10,axcpt,22,trialselector,0,175,25,25,25,100,150,274,84,1,1,E,O,L,C,0,0,0,0
393,5.0.6.0,win,12217,0:24:57,10,10,axcpt,22,AX,0,175,25,25,25,100,150,275,85,1,1,A,C,R,X,A,0,0,1200
394,5.0.6.0,win,12217,0:24:57,10,10,axcpt,22,ISI_probe,0,175,25,25,25,100,150,276,85,1,1,A,C,R,X,0,0,0,0
395,5.0.6.0,win,12217,0:24:57,10,10,axcpt,22,trialselector,0,175,25,25,25,100,150,277,85,1,1,A,C,R,X,0,0,0,0
396,5.0.6.0,win,12217,0:24:57,10,10,axcpt,22,AX,0,175,25,25,25,100,150,278,86,1,1,A,L,T,X,A,0,0,1200
397,5.0.6.0,win,12217,0:24:57,10,10,axcpt,22,ISI_probe,0,175,25,25,25,100,150,279,86,1,1,A,L,T,X,0,0,0,0
398,5.0.6.0,win,12217,0:24:57,10,10,axcpt,22,trialselector,0,175,25,25,25,100,150,280,86,1,1,A,L,T,X,0,0,0,0
399,5.0.6.0,win,12217,0:24:57,10,10,axcpt,22,AX,0,175,25,25,25,100,150,281,87,1,1,A,V,N,X,A,0,0,1200
400,5.0.6.0,win,12217,0:24:57,10,10,axcpt,22,ISI_probe,0,175,25,25,25,100,150,282,87,1,1,A,V,N,X,0,0,0,0
401,5.0.6.0,win,12217,0:24:57,10,10,axcpt,22,trialselector,0,175,25,25,25,100,150,283,87,1,1,A,V,N,X,0,0,0,0
402,5.0.6.0,win,12217,0:24:57,10,10,axcpt,22,AX,0,175,25,25,25,100,150,284,88,1,1,A,Q,Z,X,A,0,0,1200
403,5.0.6.0,win,12217,0:24:57,10,10,axcpt,22,ISI_probe,0,175,25,25,25,100,150,285,88,1,1,A,Q,Z,X,0,0,0,0
404,5.0.6.0,win,12217,0:24:57,10,10,axcpt,22,trialselector,0,175,25,25,25,100,150,286,88,1,1,A,Q,Z,X,0,0,0,0
405,5.0.6.0,win,12217,0:24:57,10,10,axcpt,22,AX,0,175,25,25,25,100,150,287,89,1,1,A,E,H,X,A,0,0,1200
406,5.0.6.0,win,12217,0:24:57,10,10,axcpt,22,ISI_probe,0,175,25,25,25,100,150,288,89,1,1,A,E,H,X,0,0,0,0
407,5.0.6.0,win,12217,0:24:57,10,10,axcpt,22,trialselector,0,175,25,25,25,100,150,289,89,3,1,A,E,H,X,0,0,0,0
408,5.0.6.0,win,12217,0:24:57,10,10,axcpt,22,BX,0,175,25,25,25,100,150,290,90,3,1,D,E,M,X,D,0,0,1200
409,5.0.6.0,win,12217,0:24:57,10,10,axcpt,22,ISI_probe,0,175,25,25,25,100,150,291,90,3,1,D,E,M,X,0,0,0,0
410,5.0.6.0,win,12217,0:24:57,10,10,axcpt,22,trialselector,0,175,25,25,25,100,150,292,90,1,1,D,E,M,X,0,0,0,0
411,5.0.6.0,win,12217,0:24:57,10,10,axcpt,22,AX,0,175,25,25,25,100,150,293,91,1,1,A,T,C,X,A,0,0,1200
412,5.0.6.0,win,12217,0:24:57,10,10,axcpt,22,ISI_probe,0,175,25,25,25,100,150,294,91,1,1,A,T,C,X,0,0,0,0
413,5.0.6.0,win,12217,0:24:57,10,10,axcpt,22,trialselector,0,175,25,25,25,100,150,295,91,1,1,A,T,C,X,0,0,0,0
414,5.0.6.0,win,12217,0:24:57,10,10,axcpt,22,AX,0,175,25,25,25,100,150,296,92,1,1,A,M,J,X,A,0,0,1200
415,5.0.6.0,win,12217,0:24:57,10,10,axcpt,22,ISI_probe,0,175,25,25,25,100,150,297,92,1,1,A,M,J,X,0,0,0,0
416,5.0.6.0,win,12217,0:24:57,10,10,axcpt,22,trialselector,0,175,25,25,25,100,150,298,92,1,1,A,M,J,X,0,0,0,0
417,5.0.6.0,win,12217,0:24:57,10,10,axcpt,22,AX,0,175,25,25,25,100,150,299,93,1,1,A,R,S,X,A,0,0,1200
418,5.0.6.0,win,12217,0:24:57,10,10,axcpt,22,ISI_probe,0,175,25,25,25,100,150,300,93,1,1,A,R,S,X,0,0,0,0
419,5.0.6.0,win,12217,0:24:57,10,10,axcpt,22,trialselector,0,175,25,25,25,100,150,301,93,1,1,A,R,S,X,0,0,0,0
420,5.0.6.0,win,12217,0:24:57,10,10,axcpt,22,AX,0,175,25,25,25,100,150,302,94,1,1,A,H,F,X,A,0,0,1200
421,5.0.6.0,win,12217,0:24:57,10,10,axcpt,22,ISI_probe,0,175,25,25,25,100,150,303,94,1,1,A,H,F,X,0,0,0,0
422,5.0.6.0,win,12217,0:24:57,10,10,axcpt,22,trialselector,0,175,25,25,25,100,150,304,94,1,1,A,H,F,X,0,0,0,0
423,5.0.6.0,win,12217,0:24:57,10,10,axcpt,22,AX,0,175,25,25,25,100,150,305,95,1,1,A,V,H,X,A,0,0,1200
424,5.0.6.0,win,12217,0:24:57,10,10,axcpt,22,ISI_probe,0,175,25,25,25,100,150,306,95,1,1,A,V,H,X,0,0,0,0
425,5.0.6.0,win,12217,0:24:57,10,10,axcpt,22,trialselector,0,175,25,25,25,100,150,307,95,1,1,A,V,H,X,0,0,0,0
426,5.0.6.0,win,12217,0:24:57,10,10,axcpt,22,AX,0,175,25,25,25,100,150,308,96,1,1,A,G,D,X,A,0,0,1200
427,5.0.6.0,win,12217,0:24:57,10,10,axcpt,22,ISI_probe,0,175,25,25,25,100,150,309,96,1,1,A,G,D,X,0,0,0,0
428,5.0.6.0,win,12217,0:24:57,10,10,axcpt,22,trialselector,0,175,25,25,25,100,150,310,96,1,1,A,G,D,X,0,0,0,0
429,5.0.6.0,win,12217,0:24:57,10,10,axcpt,22,AX,0,175,25,25,25,100,150,311,97,1,1,A,C,U,X,A,0,0,1200
430,5.0.6.0,win,12217,0:24:57,10,10,axcpt,22,ISI_probe,0,175,25,25,25,100,150,312,97,1,1,A,C,U,X,0,0,0,0
431,5.0.6.0,win,12217,0:24:57,10,10,axcpt,22,trialselector,0,175,25,25,25,100,150,313,97,2,1,A,C,U,X,0,0,0,0
432,5.0.6.0,win,12217,0:24:57,10,10,axcpt,22,AY,0,175,25,25,25,100,150,314,98,2,1,A,E,P,H,A,0,0,1200
433,5.0.6.0,win,12217,0:24:57,10,10,axcpt,22,ISI_probe,0,175,25,25,25,100,150,315,98,2,1,A,E,P,H,0,0,0,0
434,5.0.6.0,win,12217,0:24:57,10,10,axcpt,22,trialselector,0,175,25,25,25,100,150,316,98,1,1,A,E,P,H,0,0,0,0
435,5.0.6.0,win,12217,0:24:57,10,10,axcpt,22,AX,0,175,25,25,25,100,150,317,99,1,1,A,N,Z,X,A,0,0,1200
436,5.0.6.0,win,12217,0:24:57,10,10,axcpt,22,ISI_probe,0,175,25,25,25,100,150,318,99,1,1,A,N,Z,X,0,0,0,0
437,5.0.6.0,win,12217,0:24:57,10,10,axcpt,22,trialselector,0,175,25,25,25,100,150,319,99,1,1,A,N,Z,X,0,0,0,0
438,5.0.6.0,win,12217,0:24:57,10,10,axcpt,22,AX,0,175,25,25,25,100,150,320,100,1,1,A,I,E,X,A,0,0,1200
439,5.0.6.0,win,12217,0:24:57,10,10,axcpt,22,ISI_probe,0,175,25,25,25,100,150,321,100,1,1,A,I,E,X,0,0,0,0
440,5.0.6.0,win,12217,0:24:57,10,10,axcpt,22,trialselector,0,175,25,25,25,100,150,322,100,4,1,A,I,E,X,0,0,0,0
441,5.0.6.0,win,12217,0:24:57,10,10,axcpt,22,BY,0,175,25,25,25,100,150,323,101,4,2,S,I,Q,M,S,0,0,1200
442,5.0.6.0,win,12217,0:24:57,10,10,axcpt,22,ISI_probe,0,175,25,25,25,100,150,324,101,4,2,S,I,Q,M,0,0,0,0
443,5.0.6.0,win,12217,0:24:57,10,10,axcpt,22,trialselector,0,175,25,25,25,100,150,325,101,1,2,S,I,Q,M,0,0,0,0
444,5.0.6.0,win,12217,0:24:57,10,10,axcpt,22,AX,0,175,25,25,25,100,150,326,102,1,2,A,C,B,X,A,0,0,1200
445,5.0.6.0,win,12217,0:24:57,10,10,axcpt,22,ISI_probe,0,175,25,25,25,100,150,327,102,1,2,A,C,B,X,0,0,0,0
446,5.0.6.0,win,12217,0:24:57,10,10,axcpt,22,trialselector,0,175,25,25,25,100,150,328,102,1,2,A,C,B,X,0,0,0,0
447,5.0.6.0,win,12217,0:24:57,10,10,axcpt,22,AX,0,175,25,25,25,100,150,329,103,1,2,A,B,C,X,A,0,0,1200
448,5.0.6.0,win,12217,0:24:57,10,10,axcpt,22,ISI_probe,0,175,25,25,25,100,150,330,103,1,2,A,B,C,X,0,0,0,0
449,5.0.6.0,win,12217,0:24:57,10,10,axcpt,22,trialselector,0,175,25,25,25,100,150,331,103,1,2,A,B,C,X,0,0,0,0
450,5.0.6.0,win,12217,0:24:57,10,10,axcpt,22,AX,0,175,25,25,25,100,150,332,104,1,2,A,V,E,X,A,0,0,1200
451,5.0.6.0,win,12217,0:24:57,10,10,axcpt,22,ISI_probe,0,175,25,25,25,100,150,333,104,1,2,A,V,E,X,0,0,0,0
452,5.0.6.0,win,12217,0:24:57,10,10,axcpt,22,trialselector,0,175,25,25,25,100,150,334,104,1,2,A,V,E,X,0,0,0,0
453,5.0.6.0,win,12217,0:24:57,10,10,axcpt,22,AX,0,175,25,25,25,100,150,335,105,1,2,A,T,F,X,A,0,0,1200
454,5.0.6.0,win,12217,0:24:57,10,10,axcpt,22,ISI_probe,0,175,25,25,25,100,150,336,105,1,2,A,T,F,X,0,0,0,0
455,5.0.6.0,win,12217,0:24:57,10,10,axcpt,22,trialselector,0,175,25,25,25,100,150,337,105,1,2,A,T,F,X,0,0,0,0
456,5.0.6.0,win,12217,0:24:57,10,10,axcpt,22,AX,0,175,25,25,25,100,150,338,106,1,2,A,H,Z,X,A,0,0,1200
457,5.0.6.0,win,12217,0:24:57,10,10,axcpt,22,ISI_probe,0,175,25,25,25,100,150,339,106,1,2,A,H,Z,X,0,0,0,0
458,5.0.6.0,win,12217,0:24:57,10,10,axcpt,22,trialselector,0,175,25,25,25,100,150,340,106,2,2,A,H,Z,X,0,0,0,0
459,5.0.6.0,win,12217,0:24:57,10,10,axcpt,22,AY,0,175,25,25,25,100,150,341,107,2,2,A,F,J,I,A,0,0,1200
460,5.0.6.0,win,12217,0:24:57,10,10,axcpt,22,ISI_probe,0,175,25,25,25,100,150,342,107,2,2,A,F,J,I,0,0,0,0
461,5.0.6.0,win,12217,0:24:57,10,10,axcpt,22,trialselector,0,175,25,25,25,100,150,343,107,4,2,A,F,J,I,0,0,0,0
462,5.0.6.0,win,12217,0:24:57,10,10,axcpt,22,BY,0,175,25,25,25,100,150,344,108,4,2,G,D,H,F,G,0,0,1200
463,5.0.6.0,win,12217,0:24:57,10,10,axcpt,22,ISI_probe,0,175,25,25,25,100,150,345,108,4,2,G,D,H,F,0,0,0,0
464,5.0.6.0,win,12217,0:24:57,10,10,axcpt,22,trialselector,0,175,25,25,25,100,150,346,108,2,2,G,D,H,F,0,0,0,0
465,5.0.6.0,win,12217,0:24:57,10,10,axcpt,22,AY,0,175,25,25,25,100,150,347,109,2,2,A,F,S,H,A,0,0,1200
466,5.0.6.0,win,12217,0:24:57,10,10,axcpt,22,ISI_probe,0,175,25,25,25,100,150,348,109,2,2,A,F,S,H,0,0,0,0
467,5.0.6.0,win,12217,0:24:57,10,10,axcpt,22,trialselector,0,175,25,25,25,100,150,349,109,1,2,A,F,S,H,0,0,0,0
468,5.0.6.0,win,12217,0:24:57,10,10,axcpt,22,AX,0,175,25,25,25,100,150,350,110,1,2,A,L,H,X,A,0,0,1200
469,5.0.6.0,win,12217,0:24:57,10,10,axcpt,22,ISI_probe,0,175,25,25,25,100,150,351,110,1,2,A,L,H,X,0,0,0,0
470,5.0.6.0,win,12217,0:24:57,10,10,axcpt,22,trialselector,0,175,25,25,25,100,150,352,110,1,2,A,L,H,X,0,0,0,0
471,5.0.6.0,win,12217,0:24:57,10,10,axcpt,22,AX,0,175,25,25,25,100,150,353,111,1,2,A,H,G,X,A,0,0,1200
472,5.0.6.0,win,12217,0:24:57,10,10,axcpt,22,ISI_probe,0,175,25,25,25,100,150,354,111,1,2,A,H,G,X,0,0,0,0
473,5.0.6.0,win,12217,0:24:57,10,10,axcpt,22,trialselector,0,175,25,25,25,100,150,355,111,1,2,A,H,G,X,0,0,0,0
474,5.0.6.0,win,12217,0:24:57,10,10,axcpt,22,AX,0,175,25,25,25,100,150,356,112,1,2,A,I,C,X,A,0,0,1200
475,5.0.6.0,win,12217,0:24:57,10,10,axcpt,22,ISI_probe,0,175,25,25,25,100,150,357,112,1,2,A,I,C,X,0,0,0,0
476,5.0.6.0,win,12217,0:24:57,10,10,axcpt,22,trialselector,0,175,25,25,25,100,150,358,112,1,2,A,I,C,X,0,0,0,0
477,5.0.6.0,win,12217,0:24:57,10,10,axcpt,22,AX,0,175,25,25,25,100,150,359,113,1,2,A,Z,D,X,A,0,0,1200
478,5.0.6.0,win,12217,0:24:57,10,10,axcpt,22,ISI_probe,0,175,25,25,25,100,150,360,113,1,2,A,Z,D,X,0,0,0,0
479,5.0.6.0,win,12217,0:24:57,10,10,axcpt,22,trialselector,0,175,25,25,25,100,150,361,113,3,2,A,Z,D,X,0,0,0,0
480,5.0.6.0,win,12217,0:24:57,10,10,axcpt,22,BX,0,175,25,25,25,100,150,362,114,3,2,U,Q,C,X,U,0,0,1200
481,5.0.6.0,win,12217,0:24:57,10,10,axcpt,22,ISI_probe,0,175,25,25,25,100,150,363,114,3,2,U,Q,C,X,0,0,0,0
482,5.0.6.0,win,12217,0:24:57,10,10,axcpt,22,trialselector,0,175,25,25,25,100,150,364,114,1,2,U,Q,C,X,0,0,0,0
483,5.0.6.0,win,12217,0:24:57,10,10,axcpt,22,AX,0,175,25,25,25,100,150,365,115,1,2,A,D,S,X,A,0,0,1200
484,5.0.6.0,win,12217,0:24:57,10,10,axcpt,22,ISI_probe,0,175,25,25,25,100,150,366,115,1,2,A,D,S,X,0,0,0,0
485,5.0.6.0,win,12217,0:24:57,10,10,axcpt,22,trialselector,0,175,25,25,25,100,150,367,115,1,2,A,D,S,X,0,0,0,0
486,5.0.6.0,win,12217,0:24:57,10,10,axcpt,22,AX,0,175,25,25,25,100,150,368,116,1,2,A,O,S,X,A,0,0,1200
487,5.0.6.0,win,12217,0:24:57,10,10,axcpt,22,ISI_probe,0,175,25,25,25,100,150,369,116,1,2,A,O,S,X,0,0,0,0
488,5.0.6.0,win,12217,0:24:57,10,10,axcpt,22,trialselector,0,175,25,25,25,100,150,370,116,1,2,A,O,S,X,0,0,0,0
489,5.0.6.0,win,12217,0:24:57,10,10,axcpt,22,AX,0,175,25,25,25,100,150,371,117,1,2,A,R,S,X,A,0,0,1200
490,5.0.6.0,win,12217,0:24:57,10,10,axcpt,22,ISI_probe,0,175,25,25,25,100,150,372,117,1,2,A,R,S,X,0,0,0,0
491,5.0.6.0,win,12217,0:24:57,10,10,axcpt,22,trialselector,0,175,25,25,25,100,150,373,117,1,2,A,R,S,X,0,0,0,0
492,5.0.6.0,win,12217,0:24:57,10,10,axcpt,22,AX,0,175,25,25,25,100,150,374,118,1,2,A,U,S,X,A,0,0,1200
493,5.0.6.0,win,12217,0:24:57,10,10,axcpt,22,ISI_probe,0,175,25,25,25,100,150,375,118,1,2,A,U,S,X,0,0,0,0
494,5.0.6.0,win,12217,0:24:57,10,10,axcpt,22,trialselector,0,175,25,25,25,100,150,376,118,1,2,A,U,S,X,0,0,0,0
495,5.0.6.0,win,12217,0:24:57,10,10,axcpt,22,AX,0,175,25,25,25,100,150,377,119,1,2,A,I,Z,X,A,0,0,1200
496,5.0.6.0,win,12217,0:24:57,10,10,axcpt,22,ISI_probe,0,175,25,25,25,100,150,378,119,1,2,A,I,Z,X,0,0,0,0
497,5.0.6.0,win,12217,0:24:57,10,10,axcpt,22,trialselector,0,175,25,25,25,100,150,379,119,1,2,A,I,Z,X,0,0,0,0
498,5.0.6.0,win,12217,0:24:57,10,10,axcpt,22,AX,0,175,25,25,25,100,150,380,120,1,2,A,T,R,X,A,0,0,1200
499,5.0.6.0,win,12217,0:24:57,10,10,axcpt,22,ISI_probe,0,175,25,25,25,100,150,381,120,1,2,A,T,R,X,0,0,0,0
500,5.0.6.0,win,12217,0:24:57,10,10,axcpt,22,trialselector,0,175,25,25,25,100,150,382,120,1,2,A,T,R,X,0,0,0,0
501,5.0.6.0,win,12217,0:24:57,10,10,axcpt,22,AX,0,175,25,25,25,100,150,383,121,1,2,A,I,B,X,A,0,0,1200
502,5.0.6.0,win,12217,0:24:57,10,10,axcpt,22,ISI_probe,0,175,25,25,25,100,150,384,121,1,2,A,I,B,X,0,0,0,0
503,5.0.6.0,win,12217,0:24:57,10,10,axcpt,22,trialselector,0,175,25,25,25,100,150,385,121,1,2,A,I,B,X,0,0,0,0
504,5.0.6.0,win,12217,0:24:57,10,10,axcpt,22,AX,0,175,25,25,25,100,150,386,122,1,2,A,R,U,X,A,0,0,1200
505,5.0.6.0,win,12217,0:24:57,10,10,axcpt,22,ISI_probe,0,175,25,25,25,100,150,387,122,1,2,A,R,U,X,0,0,0,0
506,5.0.6.0,win,12217,0:24:57,10,10,axcpt,22,trialselector,0,175,25,25,25,100,150,388,122,1,2,A,R,U,X,0,0,0,0
507,5.0.6.0,win,12217,0:24:57,10,10,axcpt,22,AX,0,175,25,25,25,100,150,389,123,1,2,A,C,U,X,A,0,0,1200
508,5.0.6.0,win,12217,0:24:57,10,10,axcpt,22,ISI_probe,0,175,25,25,25,100,150,390,123,1,2,A,C,U,X,0,0,0,0
509,5.0.6.0,win,12217,0:24:57,10,10,axcpt,22,trialselector,0,175,25,25,25,100,150,391,123,1,2,A,C,U,X,0,0,0,0
510,5.0.6.0,win,12217,0:24:57,10,10,axcpt,22,AX,0,175,25,25,25,100,150,392,124,1,2,A,S,I,X,A,0,0,1200
511,5.0.6.0,win,12217,0:24:57,10,10,axcpt,22,ISI_probe,0,175,25,25,25,100,150,393,124,1,2,A,S,I,X,0,0,0,0
512,5.0.6.0,win,12217,0:24:57,10,10,axcpt,22,trialselector,0,175,25,25,25,100,150,394,124,1,2,A,S,I,X,0,0,0,0
513,5.0.6.0,win,12217,0:24:57,10,10,axcpt,22,AX,0,175,25,25,25,100,150,395,125,1,2,A,M,F,X,A,0,0,1200
514,5.0.6.0,win,12217,0:24:57,10,10,axcpt,22,ISI_probe,0,175,25,25,25,100,150,396,125,1,2,A,M,F,X,0,0,0,0
515,5.0.6.0,win,12217,0:24:57,10,10,axcpt,22,trialselector,0,175,25,25,25,100,150,397,125,1,2,A,M,F,X,0,0,0,0
516,5.0.6.0,win,12217,0:24:57,10,10,axcpt,22,AX,0,175,25,25,25,100,150,398,126,1,2,A,V,R,X,A,0,0,1200
517,5.0.6.0,win,12217,0:24:57,10,10,axcpt,22,ISI_probe,0,175,25,25,25,100,150,399,126,1,2,A,V,R,X,0,0,0,0
518,5.0.6.0,win,12217,0:24:57,10,10,axcpt,22,trialselector,0,175,25,25,25,100,150,400,126,4,2,A,V,R,X,0,0,0,0
519,5.0.6.0,win,12217,0:24:57,10,10,axcpt,22,BY,0,175,25,25,25,100,150,401,127,4,2,U,F,J,Q,U,0,0,1200
520,5.0.6.0,win,12217,0:24:57,10,10,axcpt,22,ISI_probe,0,175,25,25,25,100,150,402,127,4,2,U,F,J,Q,0,0,0,0
521,5.0.6.0,win,12217,0:24:57,10,10,axcpt,22,trialselector,0,175,25,25,25,100,150,403,127,1,2,U,F,J,Q,0,0,0,0
522,5.0.6.0,win,12217,0:24:57,10,10,axcpt,22,AX,0,175,25,25,25,100,150,404,128,1,2,A,Z,N,X,A,0,0,1200
523,5.0.6.0,win,12217,0:24:57,10,10,axcpt,22,ISI_probe,0,175,25,25,25,100,150,405,128,1,2,A,Z,N,X,0,0,0,0
524,5.0.6.0,win,12217,0:24:57,10,10,axcpt,22,trialselector,0,175,25,25,25,100,150,406,128,1,2,A,Z,N,X,0,0,0,0
525,5.0.6.0,win,12217,0:24:57,10,10,axcpt,22,AX,0,175,25,25,25,100,150,407,129,1,2,A,Z,G,X,A,0,0,1200
526,5.0.6.0,win,12217,0:24:57,10,10,axcpt,22,ISI_probe,0,175,25,25,25,100,150,408,129,1,2,A,Z,G,X,0,0,0,0
527,5.0.6.0,win,12217,0:24:57,10,10,axcpt,22,trialselector,0,175,25,25,25,100,150,409,129,1,2,A,Z,G,X,0,0,0,0
528,5.0.6.0,win,12217,0:24:57,10,10,axcpt,22,AX,0,175,25,25,25,100,150,410,130,1,2,A,N,J,X,A,0,0,1200
529,5.0.6.0,win,12217,0:24:57,10,10,axcpt,22,ISI_probe,0,175,25,25,25,100,150,411,130,1,2,A,N,J,X,0,0,0,0
530,5.0.6.0,win,12217,0:24:57,10,10,axcpt,22,trialselector,0,175,25,25,25,100,150,412,130,4,2,A,N,J,X,0,0,0,0
531,5.0.6.0,win,12217,0:24:57,10,10,axcpt,22,BY,0,175,25,25,25,100,150,413,131,4,2,L,P,Z,M,L,0,0,1200
532,5.0.6.0,win,12217,0:24:57,10,10,axcpt,22,ISI_probe,0,175,25,25,25,100,150,414,131,4,2,L,P,Z,M,0,0,0,0
533,5.0.6.0,win,12217,0:24:57,10,10,axcpt,22,trialselector,0,175,25,25,25,100,150,415,131,1,2,L,P,Z,M,0,0,0,0
534,5.0.6.0,win,12217,0:24:57,10,10,axcpt,22,AX,0,175,25,25,25,100,150,416,132,1,2,A,S,V,X,A,0,0,1200
535,5.0.6.0,win,12217,0:24:57,10,10,axcpt,22,ISI_probe,0,175,25,25,25,100,150,417,132,1,2,A,S,V,X,0,0,0,0
536,5.0.6.0,win,12217,0:24:57,10,10,axcpt,22,trialselector,0,175,25,25,25,100,150,418,132,1,2,A,S,V,X,0,0,0,0
537,5.0.6.0,win,12217,0:24:57,10,10,axcpt,22,AX,0,175,25,25,25,100,150,419,133,1,2,A,M,T,X,A,0,0,1200
538,5.0.6.0,win,12217,0:24:57,10,10,axcpt,22,ISI_probe,0,175,25,25,25,100,150,420,133,1,2,A,M,T,X,0,0,0,0
539,5.0.6.0,win,12217,0:24:57,10,10,axcpt,22,trialselector,0,175,25,25,25,100,150,421,133,2,2,A,M,T,X,0,0,0,0
540,5.0.6.0,win,12217,0:24:57,10,10,axcpt,22,AY,0,175,25,25,25,100,150,422,134,2,2,A,D,E,Q,A,0,0,1200
541,5.0.6.0,win,12217,0:24:57,10,10,axcpt,22,ISI_probe,0,175,25,25,25,100,150,423,134,2,2,A,D,E,Q,0,0,0,0
542,5.0.6.0,win,12217,0:24:57,10,10,axcpt,22,trialselector,0,175,25,25,25,100,150,424,134,1,2,A,D,E,Q,0,0,0,0
543,5.0.6.0,win,12217,0:24:57,10,10,axcpt,22,AX,0,175,25,25,25,100,150,425,135,1,2,A,I,S,X,A,0,0,1200
544,5.0.6.0,win,12217,0:24:57,10,10,axcpt,22,ISI_probe,0,175,25,25,25,100,150,426,135,1,2,A,I,S,X,0,0,0,0
545,5.0.6.0,win,12217,0:24:57,10,10,axcpt,22,trialselector,0,175,25,25,25,100,150,427,135,1,2,A,I,S,X,0,0,0,0
546,5.0.6.0,win,12217,0:24:57,10,10,axcpt,22,AX,0,175,25,25,25,100,150,428,136,1,2,A,C,M,X,A,0,0,1200
547,5.0.6.0,win,12217,0:24:57,10,10,axcpt,22,ISI_probe,0,175,25,25,25,100,150,429,136,1,2,A,C,M,X,0,0,0,0
548,5.0.6.0,win,12217,0:24:57,10,10,axcpt,22,trialselector,0,175,25,25,25,100,150,430,136,1,2,A,C,M,X,0,0,0,0
549,5.0.6.0,win,12217,0:24:57,10,10,axcpt,22,AX,0,175,25,25,25,100,150,431,137,1,2,A,B,F,X,A,0,0,1200
550,5.0.6.0,win,12217,0:24:57,10,10,axcpt,22,ISI_probe,0,175,25,25,25,100,150,432,137,1,2,A,B,F,X,0,0,0,0
551,5.0.6.0,win,12217,0:24:57,10,10,axcpt,22,trialselector,0,175,25,25,25,100,150,433,137,3,2,A,B,F,X,0,0,0,0
552,5.0.6.0,win,12217,0:24:57,10,10,axcpt,22,BX,0,175,25,25,25,100,150,434,138,3,2,Q,R,B,X,Q,0,0,1200
553,5.0.6.0,win,12217,0:24:57,10,10,axcpt,22,ISI_probe,0,175,25,25,25,100,150,435,138,3,2,Q,R,B,X,0,0,0,0
554,5.0.6.0,win,12217,0:24:57,10,10,axcpt,22,trialselector,0,175,25,25,25,100,150,436,138,1,2,Q,R,B,X,0,0,0,0
555,5.0.6.0,win,12217,0:24:57,10,10,axcpt,22,AX,0,175,25,25,25,100,150,437,139,1,2,A,O,R,X,A,0,0,1200
556,5.0.6.0,win,12217,0:24:57,10,10,axcpt,22,ISI_probe,0,175,25,25,25,100,150,438,139,1,2,A,O,R,X,0,0,0,0
557,5.0.6.0,win,12217,0:24:57,10,10,axcpt,22,trialselector,0,175,25,25,25,100,150,439,139,1,2,A,O,R,X,0,0,0,0
558,5.0.6.0,win,12217,0:24:57,10,10,axcpt,22,AX,0,175,25,25,25,100,150,440,140,1,2,A,M,G,X,A,0,0,1200
559,5.0.6.0,win,12217,0:24:57,10,10,axcpt,22,ISI_probe,0,175,25,25,25,100,150,441,140,1,2,A,M,G,X,0,0,0,0
560,5.0.6.0,win,12217,0:24:57,10,10,axcpt,22,trialselector,0,175,25,25,25,100,150,442,140,1,2,A,M,G,X,0,0,0,0
561,5.0.6.0,win,12217,0:24:57,10,10,axcpt,22,AX,0,175,25,25,25,100,150,443,141,1,2,A,U,Q,X,A,0,0,1200
562,5.0.6.0,win,12217,0:24:57,10,10,axcpt,22,ISI_probe,0,175,25,25,25,100,150,444,141,1,2,A,U,Q,X,0,0,0,0
563,5.0.6.0,win,12217,0:24:57,10,10,axcpt,22,trialselector,0,175,25,25,25,100,150,445,141,1,2,A,U,Q,X,0,0,0,0
564,5.0.6.0,win,12217,0:24:57,10,10,axcpt,22,AX,0,175,25,25,25,100,150,446,142,1,2,A,M,I,X,A,0,0,1200
565,5.0.6.0,win,12217,0:24:57,10,10,axcpt,22,ISI_probe,0,175,25,25,25,100,150,447,142,1,2,A,M,I,X,0,0,0,0
566,5.0.6.0,win,12217,0:24:57,10,10,axcpt,22,trialselector,0,175,25,25,25,100,150,448,142,2,2,A,M,I,X,0,0,0,0
567,5.0.6.0,win,12217,0:24:57,10,10,axcpt,22,AY,0,175,25,25,25,100,150,449,143,2,2,A,N,G,F,A,0,0,1200
568,5.0.6.0,win,12217,0:24:57,10,10,axcpt,22,ISI_probe,0,175,25,25,25,100,150,450,143,2,2,A,N,G,F,0,0,0,0
569,5.0.6.0,win,12217,0:24:57,10,10,axcpt,22,trialselector,0,175,25,25,25,100,150,451,143,1,2,A,N,G,F,0,0,0,0
570,5.0.6.0,win,12217,0:24:57,10,10,axcpt,22,AX,0,175,25,25,25,100,150,452,144,1,2,A,F,I,X,A,0,0,1200
571,5.0.6.0,win,12217,0:24:57,10,10,axcpt,22,ISI_probe,0,175,25,25,25,100,150,453,144,1,2,A,F,I,X,0,0,0,0
572,5.0.6.0,win,12217,0:24:57,10,10,axcpt,22,trialselector,0,175,25,25,25,100,150,454,144,2,2,A,F,I,X,0,0,0,0
573,5.0.6.0,win,12217,0:24:57,10,10,axcpt,22,AY,0,175,25,25,25,100,150,455,145,2,2,A,I,M,U,A,0,0,1200
574,5.0.6.0,win,12217,0:24:57,10,10,axcpt,22,ISI_probe,0,175,25,25,25,100,150,456,145,2,2,A,I,M,U,0,0,0,0
575,5.0.6.0,win,12217,0:24:57,10,10,axcpt,22,trialselector,0,175,25,25,25,100,150,457,145,1,2,A,I,M,U,0,0,0,0
576,5.0.6.0,win,12217,0:24:57,10,10,axcpt,22,AX,0,175,25,25,25,100,150,458,146,1,2,A,J,F,X,A,0,0,1200
577,5.0.6.0,win,12217,0:24:57,10,10,axcpt,22,ISI_probe,0,175,25,25,25,100,150,459,146,1,2,A,J,F,X,0,0,0,0
578,5.0.6.0,win,12217,0:24:57,10,10,axcpt,22,trialselector,0,175,25,25,25,100,150,460,146,1,2,A,J,F,X,0,0,0,0
579,5.0.6.0,win,12217,0:24:57,10,10,axcpt,22,AX,0,175,25,25,25,100,150,461,147,1,2,A,V,O,X,A,0,0,1200
580,5.0.6.0,win,12217,0:24:57,10,10,axcpt,22,ISI_probe,0,175,25,25,25,100,150,462,147,1,2,A,V,O,X,0,0,0,0
581,5.0.6.0,win,12217,0:24:57,10,10,axcpt,22,trialselector,0,175,25,25,25,100,150,463,147,1,2,A,V,O,X,0,0,0,0
582,5.0.6.0,win,12217,0:24:57,10,10,axcpt,22,AX,0,175,25,25,25,100,150,464,148,1,2,A,V,P,X,A,0,0,1200
583,5.0.6.0,win,12217,0:24:57,10,10,axcpt,22,ISI_probe,0,175,25,25,25,100,150,465,148,1,2,A,V,P,X,0,0,0,0
584,5.0.6.0,win,12217,0:24:57,10,10,axcpt,22,trialselector,0,175,25,25,25,100,150,466,148,1,2,A,V,P,X,0,0,0,0
585,5.0.6.0,win,12217,0:24:57,10,10,axcpt,22,AX,0,175,25,25,25,100,150,467,149,1,2,A,T,P,X,A,0,0,1200
586,5.0.6.0,win,12217,0:24:57,10,10,axcpt,22,ISI_probe,0,175,25,25,25,100,150,468,149,1,2,A,T,P,X,0,0,0,0
587,5.0.6.0,win,12217,0:24:57,10,10,axcpt,22,trialselector,0,175,25,25,25,100,150,469,149,1,2,A,T,P,X,0,0,0,0
588,5.0.6.0,win,12217,0:24:57,10,10,axcpt,22,AX,0,175,25,25,25,100,150,470,150,1,2,A,U,T,X,A,0,0,1200
589,5.0.6.0,win,12217,0:24:57,10,10,axcpt,22,ISI_probe,0,175,25,25,25,100,150,471,150,1,2,A,U,T,X,0,0,0,0
590,5.0.6.0,win,12217,0:24:57,10,10,axcpt,22,trialselector,0,175,25,25,25,100,150,472,150,1,2,A,U,T,X,0,0,0,0
591,5.0.6.0,win,12217,0:24:57,10,10,axcpt,22,AX,0,175,25,25,25,100,150,473,151,1,3,A,U,T,X,A,0,0,1200
592,5.0.6.0,win,12217,0:24:57,10,10,axcpt,22,ISI_probe,0,175,25,25,25,100,150,474,151,1,3,A,U,T,X,0,0,0,0
593,5.0.6.0,win,12217,0:24:57,10,10,axcpt,22,trialselector,0,175,25,25,25,100,150,475,151,3,3,A,U,T,X,0,0,0,0
594,5.0.6.0,win,12217,0:24:57,10,10,axcpt,22,BX,0,175,25,25,25,100,150,476,152,3,3,G,R,V,X,G,0,0,1200
595,5.0.6.0,win,12217,0:24:57,10,10,axcpt,22,ISI_probe,0,175,25,25,25,100,150,477,152,3,3,G,R,V,X,0,0,0,0
596,5.0.6.0,win,12217,0:24:57,10,10,axcpt,22,trialselector,0,175,25,25,25,100,150,478,152,1,3,G,R,V,X,0,0,0,0
597,5.0.6.0,win,12217,0:24:57,10,10,axcpt,22,AX,0,175,25,25,25,100,150,479,153,1,3,A,U,R,X,A,0,0,1200
598,5.0.6.0,win,12217,0:24:57,10,10,axcpt,22,ISI_probe,0,175,25,25,25,100,150,480,153,1,3,A,U,R,X,0,0,0,0
599,5.0.6.0,win,12217,0:24:57,10,10,axcpt,22,trialselector,0,175,25,25,25,100,150,481,153,3,3,A,U,R,X,0,0,0,0
600,5.0.6.0,win,12217,0:24:57,10,10,axcpt,22,BX,0,175,25,25,25,100,150,482,154,3,3,G,J,P,X,G,0,0,1200
601,5.0.6.0,win,12217,0:24:57,10,10,axcpt,22,ISI_probe,0,175,25,25,25,100,150,483,154,3,3,G,J,P,X,0,0,0,0
602,5.0.6.0,win,12217,0:24:57,10,10,axcpt,22,trialselector,0,175,25,25,25,100,150,484,154,3,3,G,J,P,X,0,0,0,0
603,5.0.6.0,win,12217,0:24:57,10,10,axcpt,22,BX,0,175,25,25,25,100,150,485,155,3,3,G,F,Q,X,G,0,0,1200
604,5.0.6.0,win,12217,0:24:57,10,10,axcpt,22,ISI_probe,0,175,25,25,25,100,150,486,155,3,3,G,F,Q,X,0,0,0,0
605,5.0.6.0,win,12217,0:24:57,10,10,axcpt,22,trialselector,0,175,25,25,25,100,150,487,155,3,3,G,F,Q,X,0,0,0,0
606,5.0.6.0,win,12217,0:24:57,10,10,axcpt,22,BX,0,175,25,25,25,100,150,488,156,3,3,Z,G,Q,X,Z,0,0,1200
607,5.0.6.0,win,12217,0:24:57,10,10,axcpt,22,ISI_probe,0,175,25,25,25,100,150,489,156,3,3,Z,G,Q,X,0,0,0,0
608,5.0.6.0,win,12217,0:24:57,10,10,axcpt,22,trialselector,0,175,25,25,25,100,150,490,156,1,3,Z,G,Q,X,0,0,0,0
609,5.0.6.0,win,12217,0:24:57,10,10,axcpt,22,AX,0,175,25,25,25,100,150,491,157,1,3,A,T,F,X,A,0,0,1200
610,5.0.6.0,win,12217,0:24:57,10,10,axcpt,22,ISI_probe,0,175,25,25,25,100,150,492,157,1,3,A,T,F,X,0,0,0,0
611,5.0.6.0,win,12217,0:24:57,10,10,axcpt,22,trialselector,0,175,25,25,25,100,150,493,157,1,3,A,T,F,X,0,0,0,0
612,5.0.6.0,win,12217,0:24:57,10,10,axcpt,22,AX,0,175,25,25,25,100,150,494,158,1,3,A,G,T,X,A,0,0,1200
613,5.0.6.0,win,12217,0:24:57,10,10,axcpt,22,ISI_probe,0,175,25,25,25,100,150,495,158,1,3,A,G,T,X,0,0,0,0
614,5.0.6.0,win,12217,0:24:57,10,10,axcpt,22,trialselector,0,175,25,25,25,100,150,496,158,1,3,A,G,T,X,0,0,0,0
615,5.0.6.0,win,12217,0:24:57,10,10,axcpt,22,AX,0,175,25,25,25,100,150,497,159,1,3,A,L,G,X,A,0,0,1200
616,5.0.6.0,win,12217,0:24:57,10,10,axcpt,22,ISI_probe,0,175,25,25,25,100,150,498,159,1,3,A,L,G,X,0,0,0,0
617,5.0.6.0,win,12217,0:24:57,10,10,axcpt,22,trialselector,0,175,25,25,25,100,150,499,159,1,3,A,L,G,X,0,0,0,0
618,5.0.6.0,win,12217,0:24:57,10,10,axcpt,22,AX,0,175,25,25,25,100,150,500,160,1,3,A,P,B,X,A,0,0,1200
619,5.0.6.0,win,12217,0:24:57,10,10,axcpt,22,ISI_probe,0,175,25,25,25,100,150,501,160,1,3,A,P,B,X,0,0,0,0
620,5.0.6.0,win,12217,0:24:57,10,10,axcpt,22,trialselector,0,175,25,25,25,100,150,502,160,1,3,A,P,B,X,0,0,0,0
621,5.0.6.0,win,12217,0:24:57,10,10,axcpt,22,AX,0,175,25,25,25,100,150,503,161,1,3,A,L,F,X,A,0,0,1200
622,5.0.6.0,win,12217,0:24:57,10,10,axcpt,22,ISI_probe,0,175,25,25,25,100,150,504,161,1,3,A,L,F,X,0,0,0,0
623,5.0.6.0,win,12217,0:24:57,10,10,axcpt,22,trialselector,0,175,25,25,25,100,150,505,161,1,3,A,L,F,X,0,0,0,0
624,5.0.6.0,win,12217,0:24:57,10,10,axcpt,22,AX,0,175,25,25,25,100,150,506,162,1,3,A,V,B,X,A,0,0,1200
625,5.0.6.0,win,12217,0:24:57,10,10,axcpt,22,ISI_probe,0,175,25,25,25,100,150,507,162,1,3,A,V,B,X,0,0,0,0
626,5.0.6.0,win,12217,0:24:57,10,10,axcpt,22,trialselector,0,175,25,25,25,100,150,508,162,1,3,A,V,B,X,0,0,0,0
627,5.0.6.0,win,12217,0:24:57,10,10,axcpt,22,AX,0,175,25,25,25,100,150,509,163,1,3,A,C,O,X,A,0,0,1200
628,5.0.6.0,win,12217,0:24:57,10,10,axcpt,22,ISI_probe,0,175,25,25,25,100,150,510,163,1,3,A,C,O,X,0,0,0,0
629,5.0.6.0,win,12217,0:24:57,10,10,axcpt,22,trialselector,0,175,25,25,25,100,150,511,163,1,3,A,C,O,X,0,0,0,0
630,5.0.6.0,win,12217,0:24:57,10,10,axcpt,22,AX,0,175,25,25,25,100,150,512,164,1,3,A,T,R,X,A,0,0,1200
631,5.0.6.0,win,12217,0:24:57,10,10,axcpt,22,ISI_probe,0,175,25,25,25,100,150,513,164,1,3,A,T,R,X,0,0,0,0
632,5.0.6.0,win,12217,0:24:57,10,10,axcpt,22,trialselector,0,175,25,25,25,100,150,514,164,1,3,A,T,R,X,0,0,0,0
633,5.0.6.0,win,12217,0:24:57,10,10,axcpt,22,AX,0,175,25,25,25,100,150,515,165,1,3,A,L,Z,X,A,0,0,1200
634,5.0.6.0,win,12217,0:24:57,10,10,axcpt,22,ISI_probe,0,175,25,25,25,100,150,516,165,1,3,A,L,Z,X,0,0,0,0
635,5.0.6.0,win,12217,0:24:57,10,10,axcpt,22,trialselector,0,175,25,25,25,100,150,517,165,1,3,A,L,Z,X,0,0,0,0
636,5.0.6.0,win,12217,0:24:57,10,10,axcpt,22,AX,0,175,25,25,25,100,150,518,166,1,3,A,G,H,X,A,0,0,1200
637,5.0.6.0,win,12217,0:24:57,10,10,axcpt,22,ISI_probe,0,175,25,25,25,100,150,519,166,1,3,A,G,H,X,0,0,0,0
638,5.0.6.0,win,12217,0:24:57,10,10,axcpt,22,trialselector,0,175,25,25,25,100,150,520,166,1,3,A,G,H,X,0,0,0,0
639,5.0.6.0,win,12217,0:24:57,10,10,axcpt,22,AX,0,175,25,25,25,100,150,521,167,1,3,A,B,N,X,A,0,0,1200
640,5.0.6.0,win,12217,0:24:57,10,10,axcpt,22,ISI_probe,0,175,25,25,25,100,150,522,167,1,3,A,B,N,X,0,0,0,0
641,5.0.6.0,win,12217,0:24:57,10,10,axcpt,22,trialselector,0,175,25,25,25,100,150,523,167,1,3,A,B,N,X,0,0,0,0
642,5.0.6.0,win,12217,0:24:57,10,10,axcpt,22,AX,0,175,25,25,25,100,150,524,168,1,3,A,Z,S,X,A,0,0,1200
643,5.0.6.0,win,12217,0:24:57,10,10,axcpt,22,ISI_probe,0,175,25,25,25,100,150,525,168,1,3,A,Z,S,X,0,0,0,0
644,5.0.6.0,win,12217,0:24:57,10,10,axcpt,22,trialselector,0,175,25,25,25,100,150,526,168,1,3,A,Z,S,X,0,0,0,0
645,5.0.6.0,win,12217,0:24:57,10,10,axcpt,22,AX,0,175,25,25,25,100,150,527,169,1,3,A,H,M,X,A,0,0,1200
646,5.0.6.0,win,12217,0:24:57,10,10,axcpt,22,ISI_probe,0,175,25,25,25,100,150,528,169,1,3,A,H,M,X,0,0,0,0
647,5.0.6.0,win,12217,0:24:57,10,10,axcpt,22,trialselector,0,175,25,25,25,100,150,529,169,1,3,A,H,M,X,0,0,0,0
648,5.0.6.0,win,12217,0:24:57,10,10,axcpt,22,AX,0,175,25,25,25,100,150,530,170,1,3,A,M,Z,X,A,0,0,1200
649,5.0.6.0,win,12217,0:24:57,10,10,axcpt,22,ISI_probe,0,175,25,25,25,100,150,531,170,1,3,A,M,Z,X,0,0,0,0
650,5.0.6.0,win,12217,0:24:57,10,10,axcpt,22,trialselector,0,175,25,25,25,100,150,532,170,1,3,A,M,Z,X,0,0,0,0
651,5.0.6.0,win,12217,0:24:57,10,10,axcpt,22,AX,0,175,25,25,25,100,150,533,171,1,3,A,E,I,X,A,0,0,1200
652,5.0.6.0,win,12217,0:24:57,10,10,axcpt,22,ISI_probe,0,175,25,25,25,100,150,534,171,1,3,A,E,I,X,0,0,0,0
653,5.0.6.0,win,12217,0:24:57,10,10,axcpt,22,trialselector,0,175,25,25,25,100,150,535,171,1,3,A,E,I,X,0,0,0,0
654,5.0.6.0,win,12217,0:24:57,10,10,axcpt,22,AX,0,175,25,25,25,100,150,536,172,1,3,A,M,P,X,A,0,0,1200
655,5.0.6.0,win,12217,0:24:57,10,10,axcpt,22,ISI_probe,0,175,25,25,25,100,150,537,172,1,3,A,M,P,X,0,0,0,0
656,5.0.6.0,win,12217,0:24:57,10,10,axcpt,22,trialselector,0,175,25,25,25,100,150,538,172,1,3,A,M,P,X,0,0,0,0
657,5.0.6.0,win,12217,0:24:57,10,10,axcpt,22,AX,0,175,25,25,25,100,150,539,173,1,3,A,U,Q,X,A,0,0,1200
658,5.0.6.0,win,12217,0:24:57,10,10,axcpt,22,ISI_probe,0,175,25,25,25,100,150,540,173,1,3,A,U,Q,X,0,0,0,0
659,5.0.6.0,win,12217,0:24:57,10,10,axcpt,22,trialselector,0,175,25,25,25,100,150,541,173,1,3,A,U,Q,X,0,0,0,0
660,5.0.6.0,win,12217,0:24:57,10,10,axcpt,22,AX,0,175,25,25,25,100,150,542,174,1,3,A,Q,H,X,A,0,0,1200
661,5.0.6.0,win,12217,0:24:57,10,10,axcpt,22,ISI_probe,0,175,25,25,25,100,150,543,174,1,3,A,Q,H,X,0,0,0,0
662,5.0.6.0,win,12217,0:24:57,10,10,axcpt,22,trialselector,0,175,25,25,25,100,150,544,174,1,3,A,Q,H,X,0,0,0,0
663,5.0.6.0,win,12217,0:24:57,10,10,axcpt,22,AX,0,175,25,25,25,100,150,545,175,1,3,A,N,F,X,A,0,0,1200
664,5.0.6.0,win,12217,0:24:57,10,10,axcpt,22,ISI_probe,0,175,25,25,25,100,150,546,175,1,3,A,N,F,X,0,0,0,0
665,5.0.6.0,win,12217,0:24:57,10,10,axcpt,22,trialselector,0,175,25,25,25,100,150,547,175,1,3,A,N,F,X,0,0,0,0
666,5.0.6.0,win,12217,0:24:57,10,10,axcpt,22,AX,0,175,25,25,25,100,150,548,176,1,3,A,V,B,X,A,0,0,1200
667,5.0.6.0,win,12217,0:24:57,10,10,axcpt,22,ISI_probe,0,175,25,25,25,100,150,549,176,1,3,A,V,B,X,0,0,0,0
668,5.0.6.0,win,12217,0:24:57,10,10,axcpt,22,trialselector,0,175,25,25,25,100,150,550,176,1,3,A,V,B,X,0,0,0,0
669,5.0.6.0,win,12217,0:24:57,10,10,axcpt,22,AX,0,175,25,25,25,100,150,551,177,1,3,A,Z,E,X,A,0,0,1200
670,5.0.6.0,win,12217,0:24:57,10,10,axcpt,22,ISI_probe,0,175,25,25,25,100,150,552,177,1,3,A,Z,E,X,0,0,0,0
671,5.0.6.0,win,12217,0:24:57,10,10,axcpt,22,trialselector,0,175,25,25,25,100,150,553,177,1,3,A,Z,E,X,0,0,0,0
672,5.0.6.0,win,12217,0:24:57,10,10,axcpt,22,AX,0,175,25,25,25,100,150,554,178,1,3,A,D,F,X,A,0,0,1200
673,5.0.6.0,win,12217,0:24:57,10,10,axcpt,22,ISI_probe,0,175,25,25,25,100,150,555,178,1,3,A,D,F,X,0,0,0,0
674,5.0.6.0,win,12217,0:24:57,10,10,axcpt,22,trialselector,0,175,25,25,25,100,150,556,178,1,3,A,D,F,X,0,0,0,0
675,5.0.6.0,win,12217,0:24:57,10,10,axcpt,22,AX,0,175,25,25,25,100,150,557,179,1,3,A,M,T,X,A,0,0,1200
676,5.0.6.0,win,12217,0:24:57,10,10,axcpt,22,ISI_probe,0,175,25,25,25,100,150,558,179,1,3,A,M,T,X,0,0,0,0
677,5.0.6.0,win,12217,0:24:57,10,10,axcpt,22,trialselector,0,175,25,25,25,100,150,559,179,1,3,A,M,T,X,0,0,0,0
678,5.0.6.0,win,12217,0:24:57,10,10,axcpt,22,AX,0,175,25,25,25,100,150,560,180,1,3,A,P,D,X,A,0,0,1200
679,5.0.6.0,win,12217,0:24:57,10,10,axcpt,22,ISI_probe,0,175,25,25,25,100,150,561,180,1,3,A,P,D,X,0,0,0,0
680,5.0.6.0,win,12217,0:24:57,10,10,axcpt,22,trialselector,0,175,25,25,25,100,150,562,180,3,3,A,P,D,X,0,0,0,0
681,5.0.6.0,win,12217,0:24:57,10,10,axcpt,22,BX,0,175,25,25,25,100,150,563,181,3,3,C,U,V,X,C,0,0,1200
682,5.0.6.0,win,12217,0:24:57,10,10,axcpt,22,ISI_probe,0,175,25,25,25,100,150,564,181,3,3,C,U,V,X,0,0,0,0
683,5.0.6.0,win,12217,0:24:57,10,10,axcpt,22,trialselector,0,175,25,25,25,100,150,565,181,1,3,C,U,V,X,0,0,0,0
684,5.0.6.0,win,12217,0:24:57,10,10,axcpt,22,AX,0,175,25,25,25,100,150,566,182,1,3,A,F,G,X,A,0,0,1200
685,5.0.6.0,win,12217,0:24:57,10,10,axcpt,22,ISI_probe,0,175,25,25,25,100,150,567,182,1,3,A,F,G,X,0,0,0,0
686,5.0.6.0,win,12217,0:24:57,10,10,axcpt,22,trialselector,0,175,25,25,25,100,150,568,182,1,3,A,F,G,X,0,0,0,0
687,5.0.6.0,win,12217,0:24:57,10,10,axcpt,22,AX,0,175,25,25,25,100,150,569,183,1,3,A,I,V,X,A,0,0,1200
688,5.0.6.0,win,12217,0:24:57,10,10,axcpt,22,ISI_probe,0,175,25,25,25,100,150,570,183,1,3,A,I,V,X,0,0,0,0
689,5.0.6.0,win,12217,0:24:57,10,10,axcpt,22,trialselector,0,175,25,25,25,100,150,571,183,3,3,A,I,V,X,0,0,0,0
690,5.0.6.0,win,12217,0:24:57,10,10,axcpt,22,BX,0,175,25,25,25,100,150,572,184,3,3,G,V,R,X,G,0,0,1200
691,5.0.6.0,win,12217,0:24:57,10,10,axcpt,22,ISI_probe,0,175,25,25,25,100,150,573,184,3,3,G,V,R,X,0,0,0,0
692,5.0.6.0,win,12217,0:24:57,10,10,axcpt,22,trialselector,0,175,25,25,25,100,150,574,184,1,3,G,V,R,X,0,0,0,0
693,5.0.6.0,win,12217,0:24:57,10,10,axcpt,22,AX,0,175,25,25,25,100,150,575,185,1,3,A,U,M,X,A,0,0,1200
694,5.0.6.0,win,12217,0:24:57,10,10,axcpt,22,ISI_probe,0,175,25,25,25,100,150,576,185,1,3,A,U,M,X,0,0,0,0
695,5.0.6.0,win,12217,0:24:57,10,10,axcpt,22,trialselector,0,175,25,25,25,100,150,577,185,1,3,A,U,M,X,0,0,0,0
696,5.0.6.0,win,12217,0:24:57,10,10,axcpt,22,AX,0,175,25,25,25,100,150,578,186,1,3,A,Z,I,X,A,0,0,1200
697,5.0.6.0,win,12217,0:24:57,10,10,axcpt,22,ISI_probe,0,175,25,25,25,100,150,579,186,1,3,A,Z,I,X,0,0,0,0
698,5.0.6.0,win,12217,0:24:57,10,10,axcpt,22,trialselector,0,175,25,25,25,100,150,580,186,1,3,A,Z,I,X,0,0,0,0
699,5.0.6.0,win,12217,0:24:57,10,10,axcpt,22,AX,0,175,25,25,25,100,150,581,187,1,3,A,P,H,X,A,0,0,1200
700,5.0.6.0,win,12217,0:24:57,10,10,axcpt,22,ISI_probe,0,175,25,25,25,100,150,582,187,1,3,A,P,H,X,0,0,0,0
701,5.0.6.0,win,12217,0:24:57,10,10,axcpt,22,trialselector,0,175,25,25,25,100,150,583,187,4,3,A,P,H,X,0,0,0,0
702,5.0.6.0,win,12217,0:24:57,10,10,axcpt,22,BY,0,175,25,25,25,100,150,584,188,4,3,T,V,R,J,T,0,0,1200
703,5.0.6.0,win,12217,0:24:57,10,10,axcpt,22,ISI_probe,0,175,25,25,25,100,150,585,188,4,3,T,V,R,J,0,0,0,0
704,5.0.6.0,win,12217,0:24:57,10,10,axcpt,22,trialselector,0,175,25,25,25,100,150,586,188,2,3,T,V,R,J,0,0,0,0
705,5.0.6.0,win,12217,0:24:57,10,10,axcpt,22,AY,0,175,25,25,25,100,150,587,189,2,3,A,D,V,U,A,0,0,1200
706,5.0.6.0,win,12217,0:24:57,10,10,axcpt,22,ISI_probe,0,175,25,25,25,100,150,588,189,2,3,A,D,V,U,0,0,0,0
707,5.0.6.0,win,12217,0:24:57,10,10,axcpt,22,trialselector,0,175,25,25,25,100,150,589,189,2,3,A,D,V,U,0,0,0,0
708,5.0.6.0,win,12217,0:24:57,10,10,axcpt,22,AY,0,175,25,25,25,100,150,590,190,2,3,A,Q,P,Z,A,0,0,1200
709,5.0.6.0,win,12217,0:24:57,10,10,axcpt,22,ISI_probe,0,175,25,25,25,100,150,591,190,2,3,A,Q,P,Z,0,0,0,0
710,5.0.6.0,win,12217,0:24:57,10,10,axcpt,22,trialselector,0,175,25,25,25,100,150,592,190,1,3,A,Q,P,Z,0,0,0,0
711,5.0.6.0,win,12217,0:24:57,10,10,axcpt,22,AX,0,175,25,25,25,100,150,593,191,1,3,A,S,E,X,A,0,0,1200
712,5.0.6.0,win,12217,0:24:57,10,10,axcpt,22,ISI_probe,0,175,25,25,25,100,150,594,191,1,3,A,S,E,X,0,0,0,0
713,5.0.6.0,win,12217,0:24:57,10,10,axcpt,22,trialselector,0,175,25,25,25,100,150,595,191,3,3,A,S,E,X,0,0,0,0
714,5.0.6.0,win,12217,0:24:57,10,10,axcpt,22,BX,0,175,25,25,25,100,150,596,192,3,3,O,F,S,X,O,0,0,1200
715,5.0.6.0,win,12217,0:24:57,10,10,axcpt,22,ISI_probe,0,175,25,25,25,100,150,597,192,3,3,O,F,S,X,0,0,0,0
716,5.0.6.0,win,12217,0:24:57,10,10,axcpt,22,trialselector,0,175,25,25,25,100,150,598,192,1,3,O,F,S,X,0,0,0,0
717,5.0.6.0,win,12217,0:24:57,10,10,axcpt,22,AX,0,175,25,25,25,100,150,599,193,1,3,A,R,V,X,A,0,0,1200
718,5.0.6.0,win,12217,0:24:57,10,10,axcpt,22,ISI_probe,0,175,25,25,25,100,150,600,193,1,3,A,R,V,X,0,0,0,0
719,5.0.6.0,win,12217,0:24:57,10,10,axcpt,22,trialselector,0,175,25,25,25,100,150,601,193,2,3,A,R,V,X,0,0,0,0
720,5.0.6.0,win,12217,0:24:57,10,10,axcpt,22,AY,0,175,25,25,25,100,150,602,194,2,3,A,G,T,P,A,0,0,1200
721,5.0.6.0,win,12217,0:24:57,10,10,axcpt,22,ISI_probe,0,175,25,25,25,100,150,603,194,2,3,A,G,T,P,0,0,0,0
722,5.0.6.0,win,12217,0:24:57,10,10,axcpt,22,trialselector,0,175,25,25,25,100,150,604,194,1,3,A,G,T,P,0,0,0,0
723,5.0.6.0,win,12217,0:24:57,10,10,axcpt,22,AX,0,175,25,25,25,100,150,605,195,1,3,A,P,N,X,A,0,0,1200
724,5.0.6.0,win,12217,0:24:57,10,10,axcpt,22,ISI_probe,0,175,25,25,25,100,150,606,195,1,3,A,P,N,X,0,0,0,0
725,5.0.6.0,win,12217,0:24:57,10,10,axcpt,22,trialselector,0,175,25,25,25,100,150,607,195,4,3,A,P,N,X,0,0,0,0
726,5.0.6.0,win,12217,0:24:57,10,10,axcpt,22,BY,0,175,25,25,25,100,150,608,196,4,3,J,B,S,E,J,0,0,1200
727,5.0.6.0,win,12217,0:24:57,10,10,axcpt,22,ISI_probe,0,175,25,25,25,100,150,609,196,4,3,J,B,S,E,0,0,0,0
728,5.0.6.0,win,12217,0:24:57,10,10,axcpt,22,trialselector,0,175,25,25,25,100,150,610,196,3,3,J,B,S,E,0,0,0,0
729,5.0.6.0,win,12217,0:24:57,10,10,axcpt,22,BX,0,175,25,25,25,100,150,611,197,3,3,O,P,D,X,O,0,0,1200
730,5.0.6.0,win,12217,0:24:57,10,10,axcpt,22,ISI_probe,0,175,25,25,25,100,150,612,197,3,3,O,P,D,X,0,0,0,0
731,5.0.6.0,win,12217,0:24:57,10,10,axcpt,22,trialselector,0,175,25,25,25,100,150,613,197,1,3,O,P,D,X,0,0,0,0
732,5.0.6.0,win,12217,0:24:57,10,10,axcpt,22,AX,0,175,25,25,25,100,150,614,198,1,3,A,R,E,X,A,0,0,1200
733,5.0.6.0,win,12217,0:24:57,10,10,axcpt,22,ISI_probe,0,175,25,25,25,100,150,615,198,1,3,A,R,E,X,0,0,0,0
734,5.0.6.0,win,12217,0:24:57,10,10,axcpt,22,trialselector,0,175,25,25,25,100,150,616,198,1,3,A,R,E,X,0,0,0,0
735,5.0.6.0,win,12217,0:24:57,10,10,axcpt,22,AX,0,175,25,25,25,100,150,617,199,1,3,A,V,G,X,A,0,0,1200
736,5.0.6.0,win,12217,0:24:57,10,10,axcpt,22,ISI_probe,0,175,25,25,25,100,150,618,199,1,3,A,V,G,X,0,0,0,0
737,5.0.6.0,win,12217,0:24:57,10,10,axcpt,22,trialselector,0,175,25,25,25,100,150,619,199,2,3,A,V,G,X,0,0,0,0
738,5.0.6.0,win,12217,0:24:57,10,10,axcpt,22,AY,0,175,25,25,25,100,150,620,200,2,3,A,U,E,M,A,0,0,1200
739,5.0.6.0,win,12217,0:24:57,10,10,axcpt,22,ISI_probe,0,175,25,25,25,100,150,621,200,2,3,A,U,E,M,0,0,0,0
740,5.0.6.0,win,12217,0:24:57,10,10,axcpt,22,trialselector,0,175,25,25,25,100,150,622,200,1,3,A,U,E,M,0,0,0,0
741,5.0.6.0,win,12217,0:24:57,10,10,axcpt,22,AX,0,175,25,25,25,100,150,623,201,1,3,A,T,Z,X,A,0,0,1200
742,5.0.6.0,win,12217,0:24:57,10,10,axcpt,22,ISI_probe,0,175,25,25,25,100,150,624,201,1,3,A,T,Z,X,0,0,0,0
743,5.0.6.0,win,12217,0:24:57,10,10,axcpt,22,trialselector,0,175,25,25,25,100,150,625,201,2,3,A,T,Z,X,0,0,0,0
744,5.0.6.0,win,12217,0:24:57,10,10,axcpt,22,AY,0,175,25,25,25,100,150,626,202,2,3,A,F,U,T,A,0,0,1200
745,5.0.6.0,win,12217,0:24:57,10,10,axcpt,22,ISI_probe,0,175,25,25,25,100,150,627,202,2,3,A,F,U,T,0,0,0,0
746,5.0.6.0,win,12217,0:24:57,10,10,axcpt,22,trialselector,0,175,25,25,25,100,150,628,202,4,3,A,F,U,T,0,0,0,0
747,5.0.6.0,win,12217,0:24:57,10,10,axcpt,22,BY,0,175,25,25,25,100,150,629,203,4,3,B,J,P,D,B,0,0,1200
748,5.0.6.0,win,12217,0:24:57,10,10,axcpt,22,ISI_probe,0,175,25,25,25,100,150,630,203,4,3,B,J,P,D,0,0,0,0
749,5.0.6.0,win,12217,0:24:57,10,10,axcpt,22,trialselector,0,175,25,25,25,100,150,631,203,1,3,B,J,P,D,0,0,0,0
750,5.0.6.0,win,12217,0:24:57,10,10,axcpt,22,AX,0,175,25,25,25,100,150,632,204,1,3,A,L,F,X,A,0,0,1200
751,5.0.6.0,win,12217,0:24:57,10,10,axcpt,22,ISI_probe,0,175,25,25,25,100,150,633,204,1,3,A,L,F,X,0,0,0,0
752,5.0.6.0,win,12217,0:24:57,10,10,axcpt,22,trialselector,0,175,25,25,25,100,150,634,204,3,3,A,L,F,X,0,0,0,0
753,5.0.6.0,win,12217,0:24:57,10,10,axcpt,22,BX,0,175,25,25,25,100,150,635,205,3,3,U,Z,B,X,U,0,0,1200
754,5.0.6.0,win,12217,0:24:57,10,10,axcpt,22,ISI_probe,0,175,25,25,25,100,150,636,205,3,3,U,Z,B,X,0,0,0,0
755,5.0.6.0,win,12217,0:24:57,10,10,axcpt,22,trialselector,0,175,25,25,25,100,150,637,205,1,3,U,Z,B,X,0,0,0,0
756,5.0.6.0,win,12217,0:24:57,10,10,axcpt,22,AX,0,175,25,25,25,100,150,638,206,1,3,A,P,T,X,A,0,0,1200
757,5.0.6.0,win,12217,0:24:57,10,10,axcpt,22,ISI_probe,0,175,25,25,25,100,150,639,206,1,3,A,P,T,X,0,0,0,0
758,5.0.6.0,win,12217,0:24:57,10,10,axcpt,22,trialselector,0,175,25,25,25,100,150,640,206,2,3,A,P,T,X,0,0,0,0
759,5.0.6.0,win,12217,0:24:57,10,10,axcpt,22,AY,0,175,25,25,25,100,150,641,207,2,3,A,I,Z,R,A,0,0,1200
760,5.0.6.0,win,12217,0:24:57,10,10,axcpt,22,ISI_probe,0,175,25,25,25,100,150,642,207,2,3,A,I,Z,R,0,0,0,0
761,5.0.6.0,win,12217,0:24:57,10,10,axcpt,22,trialselector,0,175,25,25,25,100,150,643,207,1,3,A,I,Z,R,0,0,0,0
762,5.0.6.0,win,12217,0:24:57,10,10,axcpt,22,AX,0,175,25,25,25,100,150,644,208,1,3,A,V,S,X,A,0,0,1200
763,5.0.6.0,win,12217,0:24:57,10,10,axcpt,22,ISI_probe,0,175,25,25,25,100,150,645,208,1,3,A,V,S,X,0,0,0,0
764,5.0.6.0,win,12217,0:24:57,10,10,axcpt,22,trialselector,0,175,25,25,25,100,150,646,208,2,3,A,V,S,X,0,0,0,0
765,5.0.6.0,win,12217,0:24:57,10,10,axcpt,22,AY,0,175,25,25,25,100,150,647,209,2,3,A,F,I,V,A,0,0,1200
766,5.0.6.0,win,12217,0:24:57,10,10,axcpt,22,ISI_probe,0,175,25,25,25,100,150,648,209,2,3,A,F,I,V,0,0,0,0
767,5.0.6.0,win,12217,0:24:57,10,10,axcpt,22,trialselector,0,175,25,25,25,100,150,649,209,1,3,A,F,I,V,0,0,0,0
768,5.0.6.0,win,12217,0:24:57,10,10,axcpt,22,AX,0,175,25,25,25,100,150,650,210,1,3,A,P,D,X,A,0,0,1200
769,5.0.6.0,win,12217,0:24:57,10,10,axcpt,22,ISI_probe,0,175,25,25,25,100,150,651,210,1,3,A,P,D,X,0,0,0,0
770,5.0.6.0,win,12217,0:24:57,10,10,axcpt,22,trialselector,0,175,25,25,25,100,150,652,210,3,3,A,P,D,X,0,0,0,0
771,5.0.6.0,win,12217,0:24:57,10,10,axcpt,22,BX,0,175,25,25,25,100,150,653,211,3,3,L,M,J,X,L,0,0,1200
772,5.0.6.0,win,12217,0:24:57,10,10,axcpt,22,ISI_probe,0,175,25,25,25,100,150,654,211,3,3,L,M,J,X,0,0,0,0
773,5.0.6.0,win,12217,0:24:57,10,10,axcpt,22,trialselector,0,175,25,25,25,100,150,655,211,1,3,L,M,J,X,0,0,0,0
774,5.0.6.0,win,12217,0:24:57,10,10,axcpt,22,AX,0,175,25,25,25,100,150,656,212,1,3,A,S,I,X,A,0,0,1200
775,5.0.6.0,win,12217,0:24:57,10,10,axcpt,22,ISI_probe,0,175,25,25,25,100,150,657,212,1,3,A,S,I,X,0,0,0,0
776,5.0.6.0,win,12217,0:24:57,10,10,axcpt,22,trialselector,0,175,25,25,25,100,150,658,212,1,3,A,S,I,X,0,0,0,0
777,5.0.6.0,win,12217,0:24:57,10,10,axcpt,22,AX,0,175,25,25,25,100,150,659,213,1,3,A,D,N,X,A,0,0,1200
778,5.0.6.0,win,12217,0:24:57,10,10,axcpt,22,ISI_probe,0,175,25,25,25,100,150,660,213,1,3,A,D,N,X,0,0,0,0
779,5.0.6.0,win,12217,0:24:57,10,10,axcpt,22,trialselector,0,175,25,25,25,100,150,661,213,1,3,A,D,N,X,0,0,0,0
780,5.0.6.0,win,12217,0:24:57,10,10,axcpt,22,AX,0,175,25,25,25,100,150,662,214,1,3,A,U,P,X,A,0,0,1200
781,5.0.6.0,win,12217,0:24:57,10,10,axcpt,22,ISI_probe,0,175,25,25,25,100,150,663,214,1,3,A,U,P,X,0,0,0,0
782,5.0.6.0,win,12217,0:24:57,10,10,axcpt,22,trialselector,0,175,25,25,25,100,150,664,214,1,3,A,U,P,X,0,0,0,0
783,5.0.6.0,win,12217,0:24:57,10,10,axcpt,22,AX,0,175,25,25,25,100,150,665,215,1,3,A,O,B,X,A,0,0,1200
784,5.0.6.0,win,12217,0:24:57,10,10,axcpt,22,ISI_probe,0,175,25,25,25,100,150,666,215,1,3,A,O,B,X,0,0,0,0
785,5.0.6.0,win,12217,0:24:57,10,10,axcpt,22,trialselector,0,175,25,25,25,100,150,667,215,1,3,A,O,B,X,0,0,0,0
786,5.0.6.0,win,12217,0:24:57,10,10,axcpt,22,AX,0,175,25,25,25,100,150,668,216,1,3,A,V,O,X,A,0,0,1200
787,5.0.6.0,win,12217,0:24:57,10,10,axcpt,22,ISI_probe,0,175,25,25,25,100,150,669,216,1,3,A,V,O,X,0,0,0,0
788,5.0.6.0,win,12217,0:24:57,10,10,axcpt,22,trialselector,0,175,25,25,25,100,150,670,216,2,3,A,V,O,X,0,0,0,0
789,5.0.6.0,win,12217,0:24:57,10,10,axcpt,22,AY,0,175,25,25,25,100,150,671,217,2,3,A,I,Z,P,A,0,0,1200
790,5.0.6.0,win,12217,0:24:57,10,10,axcpt,22,ISI_probe,0,175,25,25,25,100,150,672,217,2,3,A,I,Z,P,0,0,0,0
791,5.0.6.0,win,12217,0:24:57,10,10,axcpt,22,trialselector,0,175,25,25,25,100,150,673,217,1,3,A,I,Z,P,0,0,0,0
792,5.0.6.0,win,12217,0:24:57,10,10,axcpt,22,AX,0,175,25,25,25,100,150,674,218,1,3,A,G,M,X,A,0,0,1200
793,5.0.6.0,win,12217,0:24:57,10,10,axcpt,22,ISI_probe,0,175,25,25,25,100,150,675,218,1,3,A,G,M,X,0,0,0,0
794,5.0.6.0,win,12217,0:24:57,10,10,axcpt,22,trialselector,0,175,25,25,25,100,150,676,218,1,3,A,G,M,X,0,0,0,0
795,5.0.6.0,win,12217,0:24:57,10,10,axcpt,22,AX,0,175,25,25,25,100,150,677,219,1,3,A,Z,N,X,A,0,0,1200
796,5.0.6.0,win,12217,0:24:57,10,10,axcpt,22,ISI_probe,0,175,25,25,25,100,150,678,219,1,3,A,Z,N,X,0,0,0,0
797,5.0.6.0,win,12217,0:24:57,10,10,axcpt,22,trialselector,0,175,25,25,25,100,150,679,219,1,3,A,Z,N,X,0,0,0,0
798,5.0.6.0,win,12217,0:24:57,10,10,axcpt,22,AX,0,175,25,25,25,100,150,680,220,1,3,A,R,D,X,A,0,0,1200
799,5.0.6.0,win,12217,0:24:57,10,10,axcpt,22,ISI_probe,0,175,25,25,25,100,150,681,220,1,3,A,R,D,X,0,0,0,0
800,5.0.6.0,win,12217,0:24:57,10,10,axcpt,22,trialselector,0,175,25,25,25,100,150,682,220,4,3,A,R,D,X,0,0,0,0
801,5.0.6.0,win,12217,0:24:57,10,10,axcpt,22,BY,0,175,25,25,25,100,150,683,221,4,3,D,J,N,V,D,0,0,1200
802,5.0.6.0,win,12217,0:24:57,10,10,axcpt,22,ISI_probe,0,175,25,25,25,100,150,684,221,4,3,D,J,N,V,0,0,0,0
803,5.0.6.0,win,12217,0:24:57,10,10,axcpt,22,trialselector,0,175,25,25,25,100,150,685,221,3,3,D,J,N,V,0,0,0,0
804,5.0.6.0,win,12217,0:24:57,10,10,axcpt,22,BX,0,175,25,25,25,100,150,686,222,3,3,E,H,L,X,E,0,0,1200
805,5.0.6.0,win,12217,0:24:57,10,10,axcpt,22,ISI_probe,0,175,25,25,25,100,150,687,222,3,3,E,H,L,X,0,0,0,0
806,5.0.6.0,win,12217,0:24:57,10,10,axcpt,22,trialselector,0,175,25,25,25,100,150,688,222,2,3,E,H,L,X,0,0,0,0
807,5.0.6.0,win,12217,0:24:57,10,10,axcpt,22,AY,0,175,25,25,25,100,150,689,223,2,3,A,J,O,Z,A,0,0,1200
808,5.0.6.0,win,12217,0:24:57,10,10,axcpt,22,ISI_probe,0,175,25,25,25,100,150,690,223,2,3,A,J,O,Z,0,0,0,0
809,5.0.6.0,win,12217,0:24:57,10,10,axcpt,22,trialselector,0,175,25,25,25,100,150,691,223,4,3,A,J,O,Z,0,0,0,0
810,5.0.6.0,win,12217,0:24:57,10,10,axcpt,22,BY,0,175,25,25,25,100,150,692,224,4,3,E,R,B,O,E,0,0,1200
811,5.0.6.0,win,12217,0:24:57,10,10,axcpt,22,ISI_probe,0,175,25,25,25,100,150,693,224,4,3,E,R,B,O,0,0,0,0
812,5.0.6.0,win,12217,0:24:57,10,10,axcpt,22,trialselector,0,175,25,25,25,100,150,694,224,1,3,E,R,B,O,0,0,0,0
813,5.0.6.0,win,12217,0:24:57,10,10,axcpt,22,AX,0,175,25,25,25,100,150,695,225,1,3,A,O,J,X,A,0,0,1200
814,5.0.6.0,win,12217,0:24:57,10,10,axcpt,22,ISI_probe,0,175,25,25,25,100,150,696,225,1,3,A,O,J,X,0,0,0,0
815,5.0.6.0,win,12217,0:24:57,10,10,axcpt,22,trialselector,0,175,25,25,25,100,150,697,225,3,3,A,O,J,X,0,0,0,0
816,5.0.6.0,win,12217,0:24:57,10,10,axcpt,22,BX,0,175,25,25,25,100,150,698,226,3,3,Q,T,Z,X,Q,0,0,1200
817,5.0.6.0,win,12217,0:24:57,10,10,axcpt,22,ISI_probe,0,175,25,25,25,100,150,699,226,3,3,Q,T,Z,X,0,0,0,0
818,5.0.6.0,win,12217,0:24:57,10,10,axcpt,22,trialselector,0,175,25,25,25,100,150,700,226,1,3,Q,T,Z,X,0,0,0,0
819,5.0.6.0,win,12217,0:24:57,10,10,axcpt,22,AX,0,175,25,25,25,100,150,701,227,1,3,A,V,E,X,A,0,0,1200
820,5.0.6.0,win,12217,0:24:57,10,10,axcpt,22,ISI_probe,0,175,25,25,25,100,150,702,227,1,3,A,V,E,X,0,0,0,0
821,5.0.6.0,win,12217,0:24:57,10,10,axcpt,22,trialselector,0,175,25,25,25,100,150,703,227,1,3,A,V,E,X,0,0,0,0
822,5.0.6.0,win,12217,0:24:57,10,10,axcpt,22,AX,0,175,25,25,25,100,150,704,228,1,3,A,D,L,X,A,0,0,1200
823,5.0.6.0,win,12217,0:24:57,10,10,axcpt,22,ISI_probe,0,175,25,25,25,100,150,705,228,1,3,A,D,L,X,0,0,0,0
824,5.0.6.0,win,12217,0:24:57,10,10,axcpt,22,trialselector,0,175,25,25,25,100,150,706,228,3,3,A,D,L,X,0,0,0,0
825,5.0.6.0,win,12217,0:24:57,10,10,axcpt,22,BX,0,175,25,25,25,100,150,707,229,3,3,U,B,F,X,U,0,0,1200
826,5.0.6.0,win,12217,0:24:57,10,10,axcpt,22,ISI_probe,0,175,25,25,25,100,150,708,229,3,3,U,B,F,X,0,0,0,0
827,5.0.6.0,win,12217,0:24:57,10,10,axcpt,22,trialselector,0,175,25,25,25,100,150,709,229,1,3,U,B,F,X,0,0,0,0
828,5.0.6.0,win,12217,0:24:57,10,10,axcpt,22,AX,0,175,25,25,25,100,150,710,230,1,3,A,G,R,X,A,0,0,1200
829,5.0.6.0,win,12217,0:24:57,10,10,axcpt,22,ISI_probe,0,175,25,25,25,100,150,711,230,1,3,A,G,R,X,0,0,0,0
830,5.0.6.0,win,12217,0:24:57,10,10,axcpt,22,trialselector,0,175,25,25,25,100,150,712,230,4,3,A,G,R,X,0,0,0,0
831,5.0.6.0,win,12217,0:24:57,10,10,axcpt,22,BY,0,175,25,25,25,100,150,713,231,4,3,T,G,O,D,T,0,0,1200
832,5.0.6.0,win,12217,0:24:57,10,10,axcpt,22,ISI_probe,0,175,25,25,25,100,150,714,231,4,3,T,G,O,D,0,0,0,0
833,5.0.6.0,win,12217,0:24:57,10,10,axcpt,22,trialselector,0,175,25,25,25,100,150,715,231,1,3,T,G,O,D,0,0,0,0
834,5.0.6.0,win,12217,0:24:57,10,10,axcpt,22,AX,0,175,25,25,25,100,150,716,232,1,3,A,U,B,X,A,0,0,1200
835,5.0.6.0,win,12217,0:24:57,10,10,axcpt,22,ISI_probe,0,175,25,25,25,100,150,717,232,1,3,A,U,B,X,0,0,0,0
836,5.0.6.0,win,12217,0:24:57,10,10,axcpt,22,trialselector,0,175,25,25,25,100,150,718,232,1,3,A,U,B,X,0,0,0,0
837,5.0.6.0,win,12217,0:24:57,10,10,axcpt,22,AX,0,175,25,25,25,100,150,719,233,1,3,A,P,S,X,A,0,0,1200
838,5.0.6.0,win,12217,0:24:57,10,10,axcpt,22,ISI_probe,0,175,25,25,25,100,150,720,233,1,3,A,P,S,X,0,0,0,0
839,5.0.6.0,win,12217,0:24:57,10,10,axcpt,22,trialselector,0,175,25,25,25,100,150,721,233,1,3,A,P,S,X,0,0,0,0
840,5.0.6.0,win,12217,0:24:57,10,10,axcpt,22,AX,0,175,25,25,25,100,150,722,234,1,3,A,F,R,X,A,0,0,1200
841,5.0.6.0,win,12217,0:24:57,10,10,axcpt,22,ISI_probe,0,175,25,25,25,100,150,723,234,1,3,A,F,R,X,0,0,0,0
842,5.0.6.0,win,12217,0:24:57,10,10,axcpt,22,trialselector,0,175,25,25,25,100,150,724,234,1,3,A,F,R,X,0,0,0,0
843,5.0.6.0,win,12217,0:24:57,10,10,axcpt,22,AX,0,175,25,25,25,100,150,725,235,1,3,A,B,S,X,A,0,0,1200
844,5.0.6.0,win,12217,0:24:57,10,10,axcpt,22,ISI_probe,0,175,25,25,25,100,150,726,235,1,3,A,B,S,X,0,0,0,0
845,5.0.6.0,win,12217,0:24:57,10,10,axcpt,22,trialselector,0,175,25,25,25,100,150,727,235,4,3,A,B,S,X,0,0,0,0
846,5.0.6.0,win,12217,0:24:57,10,10,axcpt,22,BY,0,175,25,25,25,100,150,728,236,4,3,S,L,C,F,S,0,0,1200
