build,computer.platform,date,time,subject,values.blockcount,blockcode,values.trialcount,trialcode,list.trialsequence.currentindex,values.cuecondition,values.cuevalidity,values.flankercongruence,values.targetposition,values.targetdirection,values.locationcongruence,values.CT_ISI,parameters.target_duration,parameters.responsewindow,values.TC_ISI,parameters.min_validlatency,response,latency,values.valid,correct,values.correct,picture.flanker1.currentitem,picture.flanker2.currentitem,picture.target.currentitem,picture.flanker3.currentitem,picture.flanker4.currentitem,values.target_x,values.flanker1_x,values.cue1_x5.0.6.0,win,21217,20:51:25,10_1,0,rey_trial1_pres_instruct,0,trial1_pres_instruct1,0,0,0,0,0,0,0,0,500,1700,0,0,0,1000,0,0,0,rightarrow.jpg,rightarrow.jpg,rightarrow.jpg,rightarrow.jpg,rightarrow.jpg,0,0,05.0.6.0,win,21217,20:51:25,10_1,0,rey_trial1_pres_instruct,0,trial1_pres_instruct2,0,0,0,0,0,0,0,0,500,1700,0,0,57,3314,0,0,0,rightarrow.jpg,rightarrow.jpg,rightarrow.jpg,rightarrow.jpg,rightarrow.jpg,0,0,05.0.6.0,win,21217,20:51:25,10_1,0,rey_trial1_pres_instruct,0,trial1_pres_instruct3,0,0,0,0,0,0,0,0,500,1700,0,0,57,3313,0,0,0,rightarrow.jpg,rightarrow.jpg,rightarrow.jpg,rightarrow.jpg,rightarrow.jpg,0,0,05.0.6.0,win,21217,20:51:25,10_1,0,rey_trial1_pres_instruct,0,trial1_pres_instruct4,0,0,0,0,0,0,0,0,500,1700,0,0,57,2158,0,0,0,rightarrow.jpg,rightarrow.jpg,rightarrow.jpg,rightarrow.jpg,rightarrow.jpg,0,0,05.0.6.0,win,21217,20:51:25,10_1,0,rey_trial1_pres_instruct,0,trial1_pres_instruct5,0,0,0,0,0,0,0,0,500,1700,0,0,57,2408,0,0,0,rightarrow.jpg,rightarrow.jpg,rightarrow.jpg,rightarrow.jpg,rightarrow.jpg,0,0,05.0.6.0,win,21217,20:51:25,10_1,0,rey_trial1_pres_instruct,0,trial1_pres_instruct6,0,0,0,0,0,0,0,0,500,1700,0,0,57,2202,0,0,0,rightarrow.jpg,rightarrow.jpg,rightarrow.jpg,rightarrow.jpg,rightarrow.jpg,0,0,05.0.6.0,win,21217,20:51:25,10_1,0,rey_trial1_pres_instruct,0,trial1_pres_instruct7,0,0,0,0,0,0,0,0,500,1700,0,0,57,1871,0,0,0,rightarrow.jpg,rightarrow.jpg,rightarrow.jpg,rightarrow.jpg,rightarrow.jpg,0,0,05.0.6.0,win,21217,20:51:25,10_1,0,rey_trial1_pres_instruct,0,trial1_pres_instruct8,0,0,0,0,0,0,0,0,500,1700,0,0,57,1743,0,0,0,rightarrow.jpg,rightarrow.jpg,rightarrow.jpg,rightarrow.jpg,rightarrow.jpg,0,0,05.0.6.0,win,21217,20:51:25,10_1,0,rey_trial1_pres_instruct,0,trial1_pres_instruct9,0,0,0,0,0,0,0,0,500,1700,0,0,57,2143,0,0,0,rightarrow.jpg,rightarrow.jpg,rightarrow.jpg,rightarrow.jpg,rightarrow.jpg,0,0,05.0.6.0,win,21217,20:51:25,10_1,0,rey_trial1_pres_1a,0,rey_list_presentation_1a,0,0,0,0,0,0,0,0,500,1700,0,0,0,1000,0,0,0,rightarrow.jpg,rightarrow.jpg,rightarrow.jpg,rightarrow.jpg,rightarrow.jpg,0,0,05.0.6.0,win,21217,20:51:25,10_1,0,rey_trial1_pres_1a,0,rey_list_presentation_1a,0,0,0,0,0,0,0,0,500,1700,0,0,0,1000,0,0,0,rightarrow.jpg,rightarrow.jpg,rightarrow.jpg,rightarrow.jpg,rightarrow.jpg,0,0,05.0.6.0,win,21217,20:51:25,10_1,0,rey_trial1_pres_1a,0,rey_list_presentation_1a,0,0,0,0,0,0,0,0,500,1700,0,0,0,1000,0,0,0,rightarrow.jpg,rightarrow.jpg,rightarrow.jpg,rightarrow.jpg,rightarrow.jpg,0,0,05.0.6.0,win,21217,20:51:25,10_1,0,rey_trial1_pres_1a,0,rey_list_presentation_1a,0,0,0,0,0,0,0,0,500,1700,0,0,0,1000,0,0,0,rightarrow.jpg,rightarrow.jpg,rightarrow.jpg,rightarrow.jpg,rightarrow.jpg,0,0,05.0.6.0,win,21217,20:51:25,10_1,0,rey_trial1_pres_1a,0,rey_list_presentation_1a,0,0,0,0,0,0,0,0,500,1700,0,0,0,1000,0,0,0,rightarrow.jpg,rightarrow.jpg,rightarrow.jpg,rightarrow.jpg,rightarrow.jpg,0,0,05.0.6.0,win,21217,20:51:25,10_1,0,rey_trial1_pres_1a,0,rey_list_presentation_1a,0,0,0,0,0,0,0,0,500,1700,0,0,0,1000,0,0,0,rightarrow.jpg,rightarrow.jpg,rightarrow.jpg,rightarrow.jpg,rightarrow.jpg,0,0,05.0.6.0,win,21217,20:51:25,10_1,0,rey_trial1_pres_1a,0,rey_list_presentation_1a,0,0,0,0,0,0,0,0,500,1700,0,0,0,1000,0,0,0,rightarrow.jpg,rightarrow.jpg,rightarrow.jpg,rightarrow.jpg,rightarrow.jpg,0,0,05.0.6.0,win,21217,20:51:25,10_1,0,rey_trial1_pres_1a,0,rey_list_presentation_1a,0,0,0,0,0,0,0,0,500,1700,0,0,0,1000,0,0,0,rightarrow.jpg,rightarrow.jpg,rightarrow.jpg,rightarrow.jpg,rightarrow.jpg,0,0,05.0.6.0,win,21217,20:51:25,10_1,0,rey_trial1_pres_1a,0,rey_list_presentation_1a,0,0,0,0,0,0,0,0,500,1700,0,0,0,1000,0,0,0,rightarrow.jpg,rightarrow.jpg,rightarrow.jpg,rightarrow.jpg,rightarrow.jpg,0,0,05.0.6.0,win,21217,20:51:25,10_1,0,rey_trial1_pres_1a,0,rey_list_presentation_1a,0,0,0,0,0,0,0,0,500,1700,0,0,0,1000,0,0,0,rightarrow.jpg,rightarrow.jpg,rightarrow.jpg,rightarrow.jpg,rightarrow.jpg,0,0,05.0.6.0,win,21217,20:51:25,10_1,0,rey_trial1_pres_1a,0,rey_list_presentation_1a,0,0,0,0,0,0,0,0,500,1700,0,0,0,1000,0,0,0,rightarrow.jpg,rightarrow.jpg,rightarrow.jpg,rightarrow.jpg,rightarrow.jpg,0,0,05.0.6.0,win,21217,20:51:25,10_1,0,rey_trial1_pres_1a,0,rey_list_presentation_1a,0,0,0,0,0,0,0,0,500,1700,0,0,0,1000,0,0,0,rightarrow.jpg,rightarrow.jpg,rightarrow.jpg,rightarrow.jpg,rightarrow.jpg,0,0,05.0.6.0,win,21217,20:51:25,10_1,0,rey_trial1_pres_1a,0,rey_list_presentation_1a,0,0,0,0,0,0,0,0,500,1700,0,0,0,1000,0,0,0,rightarrow.jpg,rightarrow.jpg,rightarrow.jpg,rightarrow.jpg,rightarrow.jpg,0,0,05.0.6.0,win,21217,20:51:25,10_1,0,rey_trial1_pres_1a,0,rey_list_presentation_1a,0,0,0,0,0,0,0,0,500,1700,0,0,0,1000,0,0,0,rightarrow.jpg,rightarrow.jpg,rightarrow.jpg,rightarrow.jpg,rightarrow.jpg,0,0,05.0.6.0,win,21217,20:51:25,10_1,0,rey_trial1_pres_1a,0,rey_list_presentation_1a,0,0,0,0,0,0,0,0,500,1700,0,0,0,1000,0,0,0,rightarrow.jpg,rightarrow.jpg,rightarrow.jpg,rightarrow.jpg,rightarrow.jpg,0,0,05.0.6.0,win,21217,20:51:25,10_1,0,rey_trial1_recall,0,trial1_recall_response1,0,0,0,0,0,0,0,0,500,1700,0,0,drum,4104,0,0,0,rightarrow.jpg,rightarrow.jpg,rightarrow.jpg,rightarrow.jpg,rightarrow.jpg,0,0,05.0.6.0,win,21217,20:51:25,10_1,0,rey_trial1_recall,0,trial1_recall_response2,0,0,0,0,0,0,0,0,500,1700,0,0,curtain,9701,0,0,0,rightarrow.jpg,rightarrow.jpg,rightarrow.jpg,rightarrow.jpg,rightarrow.jpg,0,0,05.0.6.0,win,21217,20:51:25,10_1,0,rey_trial1_recall,0,trial1_recall_response3,0,0,0,0,0,0,0,0,500,1700,0,0,farmer,9514,0,0,0,rightarrow.jpg,rightarrow.jpg,rightarrow.jpg,rightarrow.jpg,rightarrow.jpg,0,0,05.0.6.0,win,21217,20:51:25,10_1,0,rey_trial1_recall,0,trial1_recall_response4,0,0,0,0,0,0,0,0,500,1700,0,0,river,5703,0,0,0,rightarrow.jpg,rightarrow.jpg,rightarrow.jpg,rightarrow.jpg,rightarrow.jpg,0,0,05.0.6.0,win,21217,20:51:25,10_1,0,rey_trial1_recall,0,trial1_recall_response5,0,0,0,0,0,0,0,0,500,1700,0,0,color,3728,0,0,0,rightarrow.jpg,rightarrow.jpg,rightarrow.jpg,rightarrow.jpg,rightarrow.jpg,0,0,05.0.6.0,win,21217,20:51:25,10_1,0,rey_trial1_recall,0,trial1_recall_response6,0,0,0,0,0,0,0,0,500,1700,0,0,yellow,3468,0,0,0,rightarrow.jpg,rightarrow.jpg,rightarrow.jpg,rightarrow.jpg,rightarrow.jpg,0,0,05.0.6.0,win,21217,20:51:25,10_1,0,rey_trial1_recall,0,trial1_recall_response7,0,0,0,0,0,0,0,0,500,1700,0,0,,879,0,0,0,rightarrow.jpg,rightarrow.jpg,rightarrow.jpg,rightarrow.jpg,rightarrow.jpg,0,0,05.0.6.0,win,21217,20:51:25,10_1,0,rey_trial2_pres_instruct,0,trial2_pres_instruct1,0,0,0,0,0,0,0,0,500,1700,0,0,28,278,0,0,0,rightarrow.jpg,rightarrow.jpg,rightarrow.jpg,rightarrow.jpg,rightarrow.jpg,0,0,05.0.6.0,win,21217,20:51:25,10_1,0,rey_trial2_pres_instruct,0,trial2_pres_instruct2,0,0,0,0,0,0,0,0,500,1700,0,0,-28,16,0,0,0,rightarrow.jpg,rightarrow.jpg,rightarrow.jpg,rightarrow.jpg,rightarrow.jpg,0,0,05.0.6.0,win,21217,20:51:25,10_1,0,rey_trial2_pres_instruct,0,trial2_pres_instruct3,0,0,0,0,0,0,0,0,500,1700,0,0,28,586,0,0,0,rightarrow.jpg,rightarrow.jpg,rightarrow.jpg,rightarrow.jpg,rightarrow.jpg,0,0,05.0.6.0,win,21217,20:51:25,10_1,0,rey_trial2_pres_1a,0,rey_list_presentation_1a,0,0,0,0,0,0,0,0,500,1700,0,0,0,1000,0,0,0,rightarrow.jpg,rightarrow.jpg,rightarrow.jpg,rightarrow.jpg,rightarrow.jpg,0,0,05.0.6.0,win,21217,20:51:25,10_1,0,rey_trial2_pres_1a,0,rey_list_presentation_1a,0,0,0,0,0,0,0,0,500,1700,0,0,0,1000,0,0,0,rightarrow.jpg,rightarrow.jpg,rightarrow.jpg,rightarrow.jpg,rightarrow.jpg,0,0,05.0.6.0,win,21217,20:51:25,10_1,0,rey_trial2_pres_1a,0,rey_list_presentation_1a,0,0,0,0,0,0,0,0,500,1700,0,0,0,1000,0,0,0,rightarrow.jpg,rightarrow.jpg,rightarrow.jpg,rightarrow.jpg,rightarrow.jpg,0,0,05.0.6.0,win,21217,20:51:25,10_1,0,rey_trial2_pres_1a,0,rey_list_presentation_1a,0,0,0,0,0,0,0,0,500,1700,0,0,0,1000,0,0,0,rightarrow.jpg,rightarrow.jpg,rightarrow.jpg,rightarrow.jpg,rightarrow.jpg,0,0,05.0.6.0,win,21217,20:51:25,10_1,0,rey_trial2_pres_1a,0,rey_list_presentation_1a,0,0,0,0,0,0,0,0,500,1700,0,0,0,1000,0,0,0,rightarrow.jpg,rightarrow.jpg,rightarrow.jpg,rightarrow.jpg,rightarrow.jpg,0,0,05.0.6.0,win,21217,20:51:25,10_1,0,rey_trial2_pres_1a,0,rey_list_presentation_1a,0,0,0,0,0,0,0,0,500,1700,0,0,0,1000,0,0,0,rightarrow.jpg,rightarrow.jpg,rightarrow.jpg,rightarrow.jpg,rightarrow.jpg,0,0,05.0.6.0,win,21217,20:51:25,10_1,0,rey_trial2_pres_1a,0,rey_list_presentation_1a,0,0,0,0,0,0,0,0,500,1700,0,0,0,1000,0,0,0,rightarrow.jpg,rightarrow.jpg,rightarrow.jpg,rightarrow.jpg,rightarrow.jpg,0,0,05.0.6.0,win,21217,20:51:25,10_1,0,rey_trial2_pres_1a,0,rey_list_presentation_1a,0,0,0,0,0,0,0,0,500,1700,0,0,0,1000,0,0,0,rightarrow.jpg,rightarrow.jpg,rightarrow.jpg,rightarrow.jpg,rightarrow.jpg,0,0,05.0.6.0,win,21217,20:51:25,10_1,0,rey_trial2_pres_1a,0,rey_list_presentation_1a,0,0,0,0,0,0,0,0,500,1700,0,0,0,1000,0,0,0,rightarrow.jpg,rightarrow.jpg,rightarrow.jpg,rightarrow.jpg,rightarrow.jpg,0,0,05.0.6.0,win,21217,20:51:25,10_1,0,rey_trial2_pres_1a,0,rey_list_presentation_1a,0,0,0,0,0,0,0,0,500,1700,0,0,0,1000,0,0,0,rightarrow.jpg,rightarrow.jpg,rightarrow.jpg,rightarrow.jpg,rightarrow.jpg,0,0,05.0.6.0,win,21217,20:51:25,10_1,0,rey_trial2_pres_1a,0,rey_list_presentation_1a,0,0,0,0,0,0,0,0,500,1700,0,0,0,1000,0,0,0,rightarrow.jpg,rightarrow.jpg,rightarrow.jpg,rightarrow.jpg,rightarrow.jpg,0,0,05.0.6.0,win,21217,20:51:25,10_1,0,rey_trial2_pres_1a,0,rey_list_presentation_1a,0,0,0,0,0,0,0,0,500,1700,0,0,0,1000,0,0,0,rightarrow.jpg,rightarrow.jpg,rightarrow.jpg,rightarrow.jpg,rightarrow.jpg,0,0,05.0.6.0,win,21217,20:51:25,10_1,0,rey_trial2_pres_1a,0,rey_list_presentation_1a,0,0,0,0,0,0,0,0,500,1700,0,0,0,1000,0,0,0,rightarrow.jpg,rightarrow.jpg,rightarrow.jpg,rightarrow.jpg,rightarrow.jpg,0,0,05.0.6.0,win,21217,20:51:25,10_1,0,rey_trial2_pres_1a,0,rey_list_presentation_1a,0,0,0,0,0,0,0,0,500,1700,0,0,0,1000,0,0,0,rightarrow.jpg,rightarrow.jpg,rightarrow.jpg,rightarrow.jpg,rightarrow.jpg,0,0,05.0.6.0,win,21217,20:51:25,10_1,0,rey_trial2_pres_1a,0,rey_list_presentation_1a,0,0,0,0,0,0,0,0,500,1700,0,0,0,1000,0,0,0,rightarrow.jpg,rightarrow.jpg,rightarrow.jpg,rightarrow.jpg,rightarrow.jpg,0,0,05.0.6.0,win,21217,20:51:25,10_1,0,rey_trial2_recall,0,trial2_recall_response1,0,0,0,0,0,0,0,0,500,1700,0,0,turkey,4728,0,0,0,rightarrow.jpg,rightarrow.jpg,rightarrow.jpg,rightarrow.jpg,rightarrow.jpg,0,0,05.0.6.0,win,21217,20:51:25,10_1,0,rey_trial2_recall,0,trial2_recall_response2,0,0,0,0,0,0,0,0,500,1700,0,0,color,3505,0,0,0,rightarrow.jpg,rightarrow.jpg,rightarrow.jpg,rightarrow.jpg,rightarrow.jpg,0,0,05.0.6.0,win,21217,20:51:25,10_1,0,rey_trial2_recall,0,trial2_recall_response3,0,0,0,0,0,0,0,0,500,1700,0,0,house,1672,0,0,0,rightarrow.jpg,rightarrow.jpg,rightarrow.jpg,rightarrow.jpg,rightarrow.jpg,0,0,05.0.6.0,win,21217,20:51:25,10_1,0,rey_trial2_recall,0,trial2_recall_response4,0,0,0,0,0,0,0,0,500,1700,0,0,river,1226,0,0,0,rightarrow.jpg,rightarrow.jpg,rightarrow.jpg,rightarrow.jpg,rightarrow.jpg,0,0,05.0.6.0,win,21217,20:51:25,10_1,0,rey_trial2_recall,0,trial2_recall_response5,0,0,0,0,0,0,0,0,500,1700,0,0,farmer,2449,0,0,0,rightarrow.jpg,rightarrow.jpg,rightarrow.jpg,rightarrow.jpg,rightarrow.jpg,0,0,05.0.6.0,win,21217,20:51:25,10_1,0,rey_trial2_recall,0,trial2_recall_response6,0,0,0,0,0,0,0,0,500,1700,0,0,hat,2035,0,0,0,rightarrow.jpg,rightarrow.jpg,rightarrow.jpg,rightarrow.jpg,rightarrow.jpg,0,0,05.0.6.0,win,21217,20:51:25,10_1,0,rey_trial2_recall,0,trial2_recall_response7,0,0,0,0,0,0,0,0,500,1700,0,0,drum,1658,0,0,0,rightarrow.jpg,rightarrow.jpg,rightarrow.jpg,rightarrow.jpg,rightarrow.jpg,0,0,05.0.6.0,win,21217,20:51:25,10_1,0,rey_trial2_recall,0,trial2_recall_response8,0,0,0,0,0,0,0,0,500,1700,0,0,curtain,2000,0,0,0,rightarrow.jpg,rightarrow.jpg,rightarrow.jpg,rightarrow.jpg,rightarrow.jpg,0,0,05.0.6.0,win,21217,20:51:25,10_1,0,rey_trial2_recall,0,trial2_recall_response9,0,0,0,0,0,0,0,0,500,1700,0,0,bell,1875,0,0,0,rightarrow.jpg,rightarrow.jpg,rightarrow.jpg,rightarrow.jpg,rightarrow.jpg,0,0,05.0.6.0,win,21217,20:51:25,10_1,0,rey_trial2_recall,0,trial2_recall_response10,0,0,0,0,0,0,0,0,500,1700,0,0,coffee,3293,0,0,0,rightarrow.jpg,rightarrow.jpg,rightarrow.jpg,rightarrow.jpg,rightarrow.jpg,0,0,05.0.6.0,win,21217,20:51:25,10_1,0,rey_trial2_recall,0,trial2_recall_response11,0,0,0,0,0,0,0,0,500,1700,0,0,moon,2171,0,0,0,rightarrow.jpg,rightarrow.jpg,rightarrow.jpg,rightarrow.jpg,rightarrow.jpg,0,0,05.0.6.0,win,21217,20:51:25,10_1,0,rey_trial2_recall,0,trial2_recall_response12,0,0,0,0,0,0,0,0,500,1700,0,0,garden,2684,0,0,0,rightarrow.jpg,rightarrow.jpg,rightarrow.jpg,rightarrow.jpg,rightarrow.jpg,0,0,05.0.6.0,win,21217,20:51:25,10_1,0,rey_trial2_recall,0,trial2_recall_response13,0,0,0,0,0,0,0,0,500,1700,0,0,parent,2253,0,0,0,rightarrow.jpg,rightarrow.jpg,rightarrow.jpg,rightarrow.jpg,rightarrow.jpg,0,0,05.0.6.0,win,21217,20:51:25,10_1,0,rey_trial2_recall,0,trial2_recall_response14,0,0,0,0,0,0,0,0,500,1700,0,0,,228,0,0,0,rightarrow.jpg,rightarrow.jpg,rightarrow.jpg,rightarrow.jpg,rightarrow.jpg,0,0,05.0.6.0,win,21217,20:51:25,10_1,0,rey_trial3_pres_instruct,0,trial3_pres_instruct1,0,0,0,0,0,0,0,0,500,1700,0,0,57,571,0,0,0,rightarrow.jpg,rightarrow.jpg,rightarrow.jpg,rightarrow.jpg,rightarrow.jpg,0,0,05.0.6.0,win,21217,20:51:25,10_1,0,rey_trial3_pres_instruct,0,trial3_pres_instruct2,0,0,0,0,0,0,0,0,500,1700,0,0,-57,87,0,0,0,rightarrow.jpg,rightarrow.jpg,rightarrow.jpg,rightarrow.jpg,rightarrow.jpg,0,0,05.0.6.0,win,21217,20:51:25,10_1,0,rey_trial3_pres_instruct,0,trial3_pres_instruct3,0,0,0,0,0,0,0,0,500,1700,0,0,57,162,0,0,0,rightarrow.jpg,rightarrow.jpg,rightarrow.jpg,rightarrow.jpg,rightarrow.jpg,0,0,05.0.6.0,win,21217,20:51:25,10_1,0,rey_trial3_pres_1a,0,rey_list_presentation_1a,0,0,0,0,0,0,0,0,500,1700,0,0,0,1000,0,0,0,rightarrow.jpg,rightarrow.jpg,rightarrow.jpg,rightarrow.jpg,rightarrow.jpg,0,0,05.0.6.0,win,21217,20:51:25,10_1,0,rey_trial3_pres_1a,0,rey_list_presentation_1a,0,0,0,0,0,0,0,0,500,1700,0,0,0,1000,0,0,0,rightarrow.jpg,rightarrow.jpg,rightarrow.jpg,rightarrow.jpg,rightarrow.jpg,0,0,05.0.6.0,win,21217,20:51:25,10_1,0,rey_trial3_pres_1a,0,rey_list_presentation_1a,0,0,0,0,0,0,0,0,500,1700,0,0,0,1000,0,0,0,rightarrow.jpg,rightarrow.jpg,rightarrow.jpg,rightarrow.jpg,rightarrow.jpg,0,0,05.0.6.0,win,21217,20:51:25,10_1,0,rey_trial3_pres_1a,0,rey_list_presentation_1a,0,0,0,0,0,0,0,0,500,1700,0,0,0,1000,0,0,0,rightarrow.jpg,rightarrow.jpg,rightarrow.jpg,rightarrow.jpg,rightarrow.jpg,0,0,05.0.6.0,win,21217,20:51:25,10_1,0,rey_trial3_pres_1a,0,rey_list_presentation_1a,0,0,0,0,0,0,0,0,500,1700,0,0,0,1000,0,0,0,rightarrow.jpg,rightarrow.jpg,rightarrow.jpg,rightarrow.jpg,rightarrow.jpg,0,0,05.0.6.0,win,21217,20:51:25,10_1,0,rey_trial3_pres_1a,0,rey_list_presentation_1a,0,0,0,0,0,0,0,0,500,1700,0,0,0,1000,0,0,0,rightarrow.jpg,rightarrow.jpg,rightarrow.jpg,rightarrow.jpg,rightarrow.jpg,0,0,05.0.6.0,win,21217,20:51:25,10_1,0,rey_trial3_pres_1a,0,rey_list_presentation_1a,0,0,0,0,0,0,0,0,500,1700,0,0,0,1000,0,0,0,rightarrow.jpg,rightarrow.jpg,rightarrow.jpg,rightarrow.jpg,rightarrow.jpg,0,0,05.0.6.0,win,21217,20:51:25,10_1,0,rey_trial3_pres_1a,0,rey_list_presentation_1a,0,0,0,0,0,0,0,0,500,1700,0,0,0,1000,0,0,0,rightarrow.jpg,rightarrow.jpg,rightarrow.jpg,rightarrow.jpg,rightarrow.jpg,0,0,05.0.6.0,win,21217,20:51:25,10_1,0,rey_trial3_pres_1a,0,rey_list_presentation_1a,0,0,0,0,0,0,0,0,500,1700,0,0,0,1000,0,0,0,rightarrow.jpg,rightarrow.jpg,rightarrow.jpg,rightarrow.jpg,rightarrow.jpg,0,0,05.0.6.0,win,21217,20:51:25,10_1,0,rey_trial3_pres_1a,0,rey_list_presentation_1a,0,0,0,0,0,0,0,0,500,1700,0,0,0,1000,0,0,0,rightarrow.jpg,rightarrow.jpg,rightarrow.jpg,rightarrow.jpg,rightarrow.jpg,0,0,05.0.6.0,win,21217,20:51:25,10_1,0,rey_trial3_pres_1a,0,rey_list_presentation_1a,0,0,0,0,0,0,0,0,500,1700,0,0,0,1000,0,0,0,rightarrow.jpg,rightarrow.jpg,rightarrow.jpg,rightarrow.jpg,rightarrow.jpg,0,0,05.0.6.0,win,21217,20:51:25,10_1,0,rey_trial3_pres_1a,0,rey_list_presentation_1a,0,0,0,0,0,0,0,0,500,1700,0,0,0,1000,0,0,0,rightarrow.jpg,rightarrow.jpg,rightarrow.jpg,rightarrow.jpg,rightarrow.jpg,0,0,05.0.6.0,win,21217,20:51:25,10_1,0,rey_trial3_pres_1a,0,rey_list_presentation_1a,0,0,0,0,0,0,0,0,500,1700,0,0,0,1000,0,0,0,rightarrow.jpg,rightarrow.jpg,rightarrow.jpg,rightarrow.jpg,rightarrow.jpg,0,0,05.0.6.0,win,21217,20:51:25,10_1,0,rey_trial3_pres_1a,0,rey_list_presentation_1a,0,0,0,0,0,0,0,0,500,1700,0,0,0,1000,0,0,0,rightarrow.jpg,rightarrow.jpg,rightarrow.jpg,rightarrow.jpg,rightarrow.jpg,0,0,05.0.6.0,win,21217,20:51:25,10_1,0,rey_trial3_pres_1a,0,rey_list_presentation_1a,0,0,0,0,0,0,0,0,500,1700,0,0,0,1000,0,0,0,rightarrow.jpg,rightarrow.jpg,rightarrow.jpg,rightarrow.jpg,rightarrow.jpg,0,0,05.0.6.0,win,21217,20:51:25,10_1,0,rey_trial3_recall,0,trial3_recall_response1,0,0,0,0,0,0,0,0,500,1700,0,0,farmer,4238,0,0,0,rightarrow.jpg,rightarrow.jpg,rightarrow.jpg,rightarrow.jpg,rightarrow.jpg,0,0,05.0.6.0,win,21217,20:51:25,10_1,0,rey_trial3_recall,0,trial3_recall_response2,0,0,0,0,0,0,0,0,500,1700,0,0,nose,1278,0,0,0,rightarrow.jpg,rightarrow.jpg,rightarrow.jpg,rightarrow.jpg,rightarrow.jpg,0,0,05.0.6.0,win,21217,20:51:25,10_1,0,rey_trial3_recall,0,trial3_recall_response3,0,0,0,0,0,0,0,0,500,1700,0,0,turkey,3041,0,0,0,rightarrow.jpg,rightarrow.jpg,rightarrow.jpg,rightarrow.jpg,rightarrow.jpg,0,0,05.0.6.0,win,21217,20:51:25,10_1,0,rey_trial3_recall,0,trial3_recall_response4,0,0,0,0,0,0,0,0,500,1700,0,0,color,2082,0,0,0,rightarrow.jpg,rightarrow.jpg,rightarrow.jpg,rightarrow.jpg,rightarrow.jpg,0,0,05.0.6.0,win,21217,20:51:25,10_1,0,rey_trial3_recall,0,trial3_recall_response5,0,0,0,0,0,0,0,0,500,1700,0,0,house,1111,0,0,0,rightarrow.jpg,rightarrow.jpg,rightarrow.jpg,rightarrow.jpg,rightarrow.jpg,0,0,05.0.6.0,win,21217,20:51:25,10_1,0,rey_trial3_recall,0,trial3_recall_response6,0,0,0,0,0,0,0,0,500,1700,0,0,river,2025,0,0,0,rightarrow.jpg,rightarrow.jpg,rightarrow.jpg,rightarrow.jpg,rightarrow.jpg,0,0,05.0.6.0,win,21217,20:51:25,10_1,0,rey_trial3_recall,0,trial3_recall_response7,0,0,0,0,0,0,0,0,500,1700,0,0,garden,3289,0,0,0,rightarrow.jpg,rightarrow.jpg,rightarrow.jpg,rightarrow.jpg,rightarrow.jpg,0,0,05.0.6.0,win,21217,20:51:25,10_1,0,rey_trial3_recall,0,trial3_recall_response8,0,0,0,0,0,0,0,0,500,1700,0,0,hat,1094,0,0,0,rightarrow.jpg,rightarrow.jpg,rightarrow.jpg,rightarrow.jpg,rightarrow.jpg,0,0,05.0.6.0,win,21217,20:51:25,10_1,0,rey_trial3_recall,0,trial3_recall_response9,0,0,0,0,0,0,0,0,500,1700,0,0,school,1389,0,0,0,rightarrow.jpg,rightarrow.jpg,rightarrow.jpg,rightarrow.jpg,rightarrow.jpg,0,0,05.0.6.0,win,21217,20:51:25,10_1,0,rey_trial3_recall,0,trial3_recall_response10,0,0,0,0,0,0,0,0,500,1700,0,0,parent,4177,0,0,0,rightarrow.jpg,rightarrow.jpg,rightarrow.jpg,rightarrow.jpg,rightarrow.jpg,0,0,05.0.6.0,win,21217,20:51:25,10_1,0,rey_trial3_recall,0,trial3_recall_response11,0,0,0,0,0,0,0,0,500,1700,0,0,drum,1844,0,0,0,rightarrow.jpg,rightarrow.jpg,rightarrow.jpg,rightarrow.jpg,rightarrow.jpg,0,0,05.0.6.0,win,21217,20:51:25,10_1,0,rey_trial3_recall,0,trial3_recall_response12,0,0,0,0,0,0,0,0,500,1700,0,0,coffee,4602,0,0,0,rightarrow.jpg,rightarrow.jpg,rightarrow.jpg,rightarrow.jpg,rightarrow.jpg,0,0,05.0.6.0,win,21217,20:51:25,10_1,0,rey_trial3_recall,0,trial3_recall_response13,0,0,0,0,0,0,0,0,500,1700,0,0,bell,2610,0,0,0,rightarrow.jpg,rightarrow.jpg,rightarrow.jpg,rightarrow.jpg,rightarrow.jpg,0,0,05.0.6.0,win,21217,20:51:25,10_1,0,rey_trial3_recall,0,trial3_recall_response14,0,0,0,0,0,0,0,0,500,1700,0,0,moon,5214,0,0,0,rightarrow.jpg,rightarrow.jpg,rightarrow.jpg,rightarrow.jpg,rightarrow.jpg,0,0,05.0.6.0,win,21217,20:51:25,10_1,0,rey_trial3_recall,0,trial3_recall_response15,0,0,0,0,0,0,0,0,500,1700,0,0,,15715,0,0,0,rightarrow.jpg,rightarrow.jpg,rightarrow.jpg,rightarrow.jpg,rightarrow.jpg,0,0,05.0.6.0,win,21217,20:51:25,10_1,0,rey_trial4_pres_instruct,0,trial4_pres_instruct1,0,0,0,0,0,0,0,0,500,1700,0,0,28,304,0,0,0,rightarrow.jpg,rightarrow.jpg,rightarrow.jpg,rightarrow.jpg,rightarrow.jpg,0,0,05.0.6.0,win,21217,20:51:25,10_1,0,rey_trial4_pres_instruct,0,trial4_pres_instruct2,0,0,0,0,0,0,0,0,500,1700,0,0,28,36,0,0,0,rightarrow.jpg,rightarrow.jpg,rightarrow.jpg,rightarrow.jpg,rightarrow.jpg,0,0,05.0.6.0,win,21217,20:51:25,10_1,0,rey_trial4_pres_instruct,0,trial4_pres_instruct3,0,0,0,0,0,0,0,0,500,1700,0,0,-28,44,0,0,0,rightarrow.jpg,rightarrow.jpg,rightarrow.jpg,rightarrow.jpg,rightarrow.jpg,0,0,05.0.6.0,win,21217,20:51:25,10_1,0,rey_trial4_pres_1a,0,rey_list_presentation_1a,0,0,0,0,0,0,0,0,500,1700,0,0,0,1000,0,0,0,rightarrow.jpg,rightarrow.jpg,rightarrow.jpg,rightarrow.jpg,rightarrow.jpg,0,0,05.0.6.0,win,21217,20:51:25,10_1,0,rey_trial4_pres_1a,0,rey_list_presentation_1a,0,0,0,0,0,0,0,0,500,1700,0,0,0,1000,0,0,0,rightarrow.jpg,rightarrow.jpg,rightarrow.jpg,rightarrow.jpg,rightarrow.jpg,0,0,05.0.6.0,win,21217,20:51:25,10_1,0,rey_trial4_pres_1a,0,rey_list_presentation_1a,0,0,0,0,0,0,0,0,500,1700,0,0,0,1000,0,0,0,rightarrow.jpg,rightarrow.jpg,rightarrow.jpg,rightarrow.jpg,rightarrow.jpg,0,0,05.0.6.0,win,21217,20:51:25,10_1,0,rey_trial4_pres_1a,0,rey_list_presentation_1a,0,0,0,0,0,0,0,0,500,1700,0,0,0,1000,0,0,0,rightarrow.jpg,rightarrow.jpg,rightarrow.jpg,rightarrow.jpg,rightarrow.jpg,0,0,05.0.6.0,win,21217,20:51:25,10_1,0,rey_trial4_pres_1a,0,rey_list_presentation_1a,0,0,0,0,0,0,0,0,500,1700,0,0,0,1000,0,0,0,rightarrow.jpg,rightarrow.jpg,rightarrow.jpg,rightarrow.jpg,rightarrow.jpg,0,0,05.0.6.0,win,21217,20:51:25,10_1,0,rey_trial4_pres_1a,0,rey_list_presentation_1a,0,0,0,0,0,0,0,0,500,1700,0,0,0,1000,0,0,0,rightarrow.jpg,rightarrow.jpg,rightarrow.jpg,rightarrow.jpg,rightarrow.jpg,0,0,05.0.6.0,win,21217,20:51:25,10_1,0,rey_trial4_pres_1a,0,rey_list_presentation_1a,0,0,0,0,0,0,0,0,500,1700,0,0,0,1000,0,0,0,rightarrow.jpg,rightarrow.jpg,rightarrow.jpg,rightarrow.jpg,rightarrow.jpg,0,0,05.0.6.0,win,21217,20:51:25,10_1,0,rey_trial4_pres_1a,0,rey_list_presentation_1a,0,0,0,0,0,0,0,0,500,1700,0,0,0,1000,0,0,0,rightarrow.jpg,rightarrow.jpg,rightarrow.jpg,rightarrow.jpg,rightarrow.jpg,0,0,05.0.6.0,win,21217,20:51:25,10_1,0,rey_trial4_pres_1a,0,rey_list_presentation_1a,0,0,0,0,0,0,0,0,500,1700,0,0,0,1000,0,0,0,rightarrow.jpg,rightarrow.jpg,rightarrow.jpg,rightarrow.jpg,rightarrow.jpg,0,0,05.0.6.0,win,21217,20:51:25,10_1,0,rey_trial4_pres_1a,0,rey_list_presentation_1a,0,0,0,0,0,0,0,0,500,1700,0,0,0,1000,0,0,0,rightarrow.jpg,rightarrow.jpg,rightarrow.jpg,rightarrow.jpg,rightarrow.jpg,0,0,05.0.6.0,win,21217,20:51:25,10_1,0,rey_trial4_pres_1a,0,rey_list_presentation_1a,0,0,0,0,0,0,0,0,500,1700,0,0,0,1000,0,0,0,rightarrow.jpg,rightarrow.jpg,rightarrow.jpg,rightarrow.jpg,rightarrow.jpg,0,0,05.0.6.0,win,21217,20:51:25,10_1,0,rey_trial4_pres_1a,0,rey_list_presentation_1a,0,0,0,0,0,0,0,0,500,1700,0,0,0,1000,0,0,0,rightarrow.jpg,rightarrow.jpg,rightarrow.jpg,rightarrow.jpg,rightarrow.jpg,0,0,05.0.6.0,win,21217,20:51:25,10_1,0,rey_trial4_pres_1a,0,rey_list_presentation_1a,0,0,0,0,0,0,0,0,500,1700,0,0,0,1000,0,0,0,rightarrow.jpg,rightarrow.jpg,rightarrow.jpg,rightarrow.jpg,rightarrow.jpg,0,0,05.0.6.0,win,21217,20:51:25,10_1,0,rey_trial4_pres_1a,0,rey_list_presentation_1a,0,0,0,0,0,0,0,0,500,1700,0,0,0,1000,0,0,0,rightarrow.jpg,rightarrow.jpg,rightarrow.jpg,rightarrow.jpg,rightarrow.jpg,0,0,05.0.6.0,win,21217,20:51:25,10_1,0,rey_trial4_pres_1a,0,rey_list_presentation_1a,0,0,0,0,0,0,0,0,500,1700,0,0,0,1000,0,0,0,rightarrow.jpg,rightarrow.jpg,rightarrow.jpg,rightarrow.jpg,rightarrow.jpg,0,0,05.0.6.0,win,21217,20:51:25,10_1,0,rey_trial4_recall,0,trial4_recall_response1,0,0,0,0,0,0,0,0,500,1700,0,0,turkey,4545,0,0,0,rightarrow.jpg,rightarrow.jpg,rightarrow.jpg,rightarrow.jpg,rightarrow.jpg,0,0,05.0.6.0,win,21217,20:51:25,10_1,0,rey_trial4_recall,0,trial4_recall_response2,0,0,0,0,0,0,0,0,500,1700,0,0,nose,2035,0,0,0,rightarrow.jpg,rightarrow.jpg,rightarrow.jpg,rightarrow.jpg,rightarrow.jpg,0,0,05.0.6.0,win,21217,20:51:25,10_1,0,rey_trial4_recall,0,trial4_recall_response3,0,0,0,0,0,0,0,0,500,1700,0,0,color,2909,0,0,0,rightarrow.jpg,rightarrow.jpg,rightarrow.jpg,rightarrow.jpg,rightarrow.jpg,0,0,05.0.6.0,win,21217,20:51:25,10_1,0,rey_trial4_recall,0,trial4_recall_response4,0,0,0,0,0,0,0,0,500,1700,0,0,river,2221,0,0,0,rightarrow.jpg,rightarrow.jpg,rightarrow.jpg,rightarrow.jpg,rightarrow.jpg,0,0,05.0.6.0,win,21217,20:51:25,10_1,0,rey_trial4_recall,0,trial4_recall_response5,0,0,0,0,0,0,0,0,500,1700,0,0,house,1620,0,0,0,rightarrow.jpg,rightarrow.jpg,rightarrow.jpg,rightarrow.jpg,rightarrow.jpg,0,0,05.0.6.0,win,21217,20:51:25,10_1,0,rey_trial4_recall,0,trial4_recall_response6,0,0,0,0,0,0,0,0,500,1700,0,0,hat,1350,0,0,0,rightarrow.jpg,rightarrow.jpg,rightarrow.jpg,rightarrow.jpg,rightarrow.jpg,0,0,05.0.6.0,win,21217,20:51:25,10_1,0,rey_trial4_recall,0,trial4_recall_response7,0,0,0,0,0,0,0,0,500,1700,0,0,farmer,1611,0,0,0,rightarrow.jpg,rightarrow.jpg,rightarrow.jpg,rightarrow.jpg,rightarrow.jpg,0,0,05.0.6.0,win,21217,20:51:25,10_1,0,rey_trial4_recall,0,trial4_recall_response8,0,0,0,0,0,0,0,0,500,1700,0,0,garden,1862,0,0,0,rightarrow.jpg,rightarrow.jpg,rightarrow.jpg,rightarrow.jpg,rightarrow.jpg,0,0,05.0.6.0,win,21217,20:51:25,10_1,0,rey_trial4_recall,0,trial4_recall_response9,0,0,0,0,0,0,0,0,500,1700,0,0,school,2334,0,0,0,rightarrow.jpg,rightarrow.jpg,rightarrow.jpg,rightarrow.jpg,rightarrow.jpg,0,0,05.0.6.0,win,21217,20:51:25,10_1,0,rey_trial4_recall,0,trial4_recall_response10,0,0,0,0,0,0,0,0,500,1700,0,0,parent,3025,0,0,0,rightarrow.jpg,rightarrow.jpg,rightarrow.jpg,rightarrow.jpg,rightarrow.jpg,0,0,05.0.6.0,win,21217,20:51:25,10_1,0,rey_trial4_recall,0,trial4_recall_response11,0,0,0,0,0,0,0,0,500,1700,0,0,coffee,2187,0,0,0,rightarrow.jpg,rightarrow.jpg,rightarrow.jpg,rightarrow.jpg,rightarrow.jpg,0,0,05.0.6.0,win,21217,20:51:25,10_1,0,rey_trial4_recall,0,trial4_recall_response12,0,0,0,0,0,0,0,0,500,1700,0,0,bell,1408,0,0,0,rightarrow.jpg,rightarrow.jpg,rightarrow.jpg,rightarrow.jpg,rightarrow.jpg,0,0,05.0.6.0,win,21217,20:51:25,10_1,0,rey_trial4_recall,0,trial4_recall_response13,0,0,0,0,0,0,0,0,500,1700,0,0,moon,3496,0,0,0,rightarrow.jpg,rightarrow.jpg,rightarrow.jpg,rightarrow.jpg,rightarrow.jpg,0,0,05.0.6.0,win,21217,20:51:25,10_1,0,rey_trial4_recall,0,trial4_recall_response14,0,0,0,0,0,0,0,0,500,1700,0,0,drum,3254,0,0,0,rightarrow.jpg,rightarrow.jpg,rightarrow.jpg,rightarrow.jpg,rightarrow.jpg,0,0,05.0.6.0,win,21217,20:51:25,10_1,0,rey_trial4_recall,0,trial4_recall_response15,0,0,0,0,0,0,0,0,500,1700,0,0,curtain,2642,0,0,0,rightarrow.jpg,rightarrow.jpg,rightarrow.jpg,rightarrow.jpg,rightarrow.jpg,0,0,05.0.6.0,win,21217,20:51:25,10_1,0,rey_trial4_recall,0,trial4_recall_response16,0,0,0,0,0,0,0,0,500,1700,0,0,,308,0,0,0,rightarrow.jpg,rightarrow.jpg,rightarrow.jpg,rightarrow.jpg,rightarrow.jpg,0,0,05.0.6.0,win,21217,20:51:25,10_1,0,rey_trial5_pres_instruct,0,trial5_pres_instruct1,0,0,0,0,0,0,0,0,500,1700,0,0,28,435,0,0,0,rightarrow.jpg,rightarrow.jpg,rightarrow.jpg,rightarrow.jpg,rightarrow.jpg,0,0,05.0.6.0,win,21217,20:51:25,10_1,0,rey_trial5_pres_instruct,0,trial5_pres_instruct2,0,0,0,0,0,0,0,0,500,1700,0,0,28,184,0,0,0,rightarrow.jpg,rightarrow.jpg,rightarrow.jpg,rightarrow.jpg,rightarrow.jpg,0,0,05.0.6.0,win,21217,20:51:25,10_1,0,rey_trial5_pres_instruct,0,trial5_pres_instruct3,0,0,0,0,0,0,0,0,500,1700,0,0,57,603,0,0,0,rightarrow.jpg,rightarrow.jpg,rightarrow.jpg,rightarrow.jpg,rightarrow.jpg,0,0,05.0.6.0,win,21217,20:51:25,10_1,0,rey_trial5_pres_1a,0,rey_list_presentation_1a,0,0,0,0,0,0,0,0,500,1700,0,0,0,1000,0,0,0,rightarrow.jpg,rightarrow.jpg,rightarrow.jpg,rightarrow.jpg,rightarrow.jpg,0,0,05.0.6.0,win,21217,20:51:25,10_1,0,rey_trial5_pres_1a,0,rey_list_presentation_1a,0,0,0,0,0,0,0,0,500,1700,0,0,0,1000,0,0,0,rightarrow.jpg,rightarrow.jpg,rightarrow.jpg,rightarrow.jpg,rightarrow.jpg,0,0,05.0.6.0,win,21217,20:51:25,10_1,0,rey_trial5_pres_1a,0,rey_list_presentation_1a,0,0,0,0,0,0,0,0,500,1700,0,0,0,1000,0,0,0,rightarrow.jpg,rightarrow.jpg,rightarrow.jpg,rightarrow.jpg,rightarrow.jpg,0,0,05.0.6.0,win,21217,20:51:25,10_1,0,rey_trial5_pres_1a,0,rey_list_presentation_1a,0,0,0,0,0,0,0,0,500,1700,0,0,0,1000,0,0,0,rightarrow.jpg,rightarrow.jpg,rightarrow.jpg,rightarrow.jpg,rightarrow.jpg,0,0,05.0.6.0,win,21217,20:51:25,10_1,0,rey_trial5_pres_1a,0,rey_list_presentation_1a,0,0,0,0,0,0,0,0,500,1700,0,0,0,1000,0,0,0,rightarrow.jpg,rightarrow.jpg,rightarrow.jpg,rightarrow.jpg,rightarrow.jpg,0,0,05.0.6.0,win,21217,20:51:25,10_1,0,rey_trial5_pres_1a,0,rey_list_presentation_1a,0,0,0,0,0,0,0,0,500,1700,0,0,0,1000,0,0,0,rightarrow.jpg,rightarrow.jpg,rightarrow.jpg,rightarrow.jpg,rightarrow.jpg,0,0,05.0.6.0,win,21217,20:51:25,10_1,0,rey_trial5_pres_1a,0,rey_list_presentation_1a,0,0,0,0,0,0,0,0,500,1700,0,0,0,1000,0,0,0,rightarrow.jpg,rightarrow.jpg,rightarrow.jpg,rightarrow.jpg,rightarrow.jpg,0,0,05.0.6.0,win,21217,20:51:25,10_1,0,rey_trial5_pres_1a,0,rey_list_presentation_1a,0,0,0,0,0,0,0,0,500,1700,0,0,0,1000,0,0,0,rightarrow.jpg,rightarrow.jpg,rightarrow.jpg,rightarrow.jpg,rightarrow.jpg,0,0,05.0.6.0,win,21217,20:51:25,10_1,0,rey_trial5_pres_1a,0,rey_list_presentation_1a,0,0,0,0,0,0,0,0,500,1700,0,0,0,1000,0,0,0,rightarrow.jpg,rightarrow.jpg,rightarrow.jpg,rightarrow.jpg,rightarrow.jpg,0,0,05.0.6.0,win,21217,20:51:25,10_1,0,rey_trial5_pres_1a,0,rey_list_presentation_1a,0,0,0,0,0,0,0,0,500,1700,0,0,0,1000,0,0,0,rightarrow.jpg,rightarrow.jpg,rightarrow.jpg,rightarrow.jpg,rightarrow.jpg,0,0,05.0.6.0,win,21217,20:51:25,10_1,0,rey_trial5_pres_1a,0,rey_list_presentation_1a,0,0,0,0,0,0,0,0,500,1700,0,0,0,1000,0,0,0,rightarrow.jpg,rightarrow.jpg,rightarrow.jpg,rightarrow.jpg,rightarrow.jpg,0,0,05.0.6.0,win,21217,20:51:25,10_1,0,rey_trial5_pres_1a,0,rey_list_presentation_1a,0,0,0,0,0,0,0,0,500,1700,0,0,0,1000,0,0,0,rightarrow.jpg,rightarrow.jpg,rightarrow.jpg,rightarrow.jpg,rightarrow.jpg,0,0,05.0.6.0,win,21217,20:51:25,10_1,0,rey_trial5_pres_1a,0,rey_list_presentation_1a,0,0,0,0,0,0,0,0,500,1700,0,0,0,1000,0,0,0,rightarrow.jpg,rightarrow.jpg,rightarrow.jpg,rightarrow.jpg,rightarrow.jpg,0,0,05.0.6.0,win,21217,20:51:25,10_1,0,rey_trial5_pres_1a,0,rey_list_presentation_1a,0,0,0,0,0,0,0,0,500,1700,0,0,0,1000,0,0,0,rightarrow.jpg,rightarrow.jpg,rightarrow.jpg,rightarrow.jpg,rightarrow.jpg,0,0,05.0.6.0,win,21217,20:51:25,10_1,0,rey_trial5_pres_1a,0,rey_list_presentation_1a,0,0,0,0,0,0,0,0,500,1700,0,0,0,1000,0,0,0,rightarrow.jpg,rightarrow.jpg,rightarrow.jpg,rightarrow.jpg,rightarrow.jpg,0,0,05.0.6.0,win,21217,20:51:25,10_1,0,rey_trial5_recall,0,trial5_recall_response1,0,0,0,0,0,0,0,0,500,1700,0,0,house,2720,0,0,0,rightarrow.jpg,rightarrow.jpg,rightarrow.jpg,rightarrow.jpg,rightarrow.jpg,0,0,05.0.6.0,win,21217,20:51:25,10_1,0,rey_trial5_recall,0,trial5_recall_response2,0,0,0,0,0,0,0,0,500,1700,0,0,river,1500,0,0,0,rightarrow.jpg,rightarrow.jpg,rightarrow.jpg,rightarrow.jpg,rightarrow.jpg,0,0,05.0.6.0,win,21217,20:51:25,10_1,0,rey_trial5_recall,0,trial5_recall_response3,0,0,0,0,0,0,0,0,500,1700,0,0,turkey,1979,0,0,0,rightarrow.jpg,rightarrow.jpg,rightarrow.jpg,rightarrow.jpg,rightarrow.jpg,0,0,05.0.6.0,win,21217,20:51:25,10_1,0,rey_trial5_recall,0,trial5_recall_response4,0,0,0,0,0,0,0,0,500,1700,0,0,color,2135,0,0,0,rightarrow.jpg,rightarrow.jpg,rightarrow.jpg,rightarrow.jpg,rightarrow.jpg,0,0,05.0.6.0,win,21217,20:51:25,10_1,0,rey_trial5_recall,0,trial5_recall_response5,0,0,0,0,0,0,0,0,500,1700,0,0,hat,1657,0,0,0,rightarrow.jpg,rightarrow.jpg,rightarrow.jpg,rightarrow.jpg,rightarrow.jpg,0,0,05.0.6.0,win,21217,20:51:25,10_1,0,rey_trial5_recall,0,trial5_recall_response6,0,0,0,0,0,0,0,0,500,1700,0,0,drum,1685,0,0,0,rightarrow.jpg,rightarrow.jpg,rightarrow.jpg,rightarrow.jpg,rightarrow.jpg,0,0,05.0.6.0,win,21217,20:51:25,10_1,0,rey_trial5_recall,0,trial5_recall_response7,0,0,0,0,0,0,0,0,500,1700,0,0,garden,2806,0,0,0,rightarrow.jpg,rightarrow.jpg,rightarrow.jpg,rightarrow.jpg,rightarrow.jpg,0,0,05.0.6.0,win,21217,20:51:25,10_1,0,rey_trial5_recall,0,trial5_recall_response8,0,0,0,0,0,0,0,0,500,1700,0,0,farmer,3283,0,0,0,rightarrow.jpg,rightarrow.jpg,rightarrow.jpg,rightarrow.jpg,rightarrow.jpg,0,0,05.0.6.0,win,21217,20:51:25,10_1,0,rey_trial5_recall,0,trial5_recall_response9,0,0,0,0,0,0,0,0,500,1700,0,0,bell,2284,0,0,0,rightarrow.jpg,rightarrow.jpg,rightarrow.jpg,rightarrow.jpg,rightarrow.jpg,0,0,05.0.6.0,win,21217,20:51:25,10_1,0,rey_trial5_recall,0,trial5_recall_response10,0,0,0,0,0,0,0,0,500,1700,0,0,coffee,1983,0,0,0,rightarrow.jpg,rightarrow.jpg,rightarrow.jpg,rightarrow.jpg,rightarrow.jpg,0,0,05.0.6.0,win,21217,20:51:25,10_1,0,rey_trial5_recall,0,trial5_recall_response11,0,0,0,0,0,0,0,0,500,1700,0,0,parent,2683,0,0,0,rightarrow.jpg,rightarrow.jpg,rightarrow.jpg,rightarrow.jpg,rightarrow.jpg,0,0,05.0.6.0,win,21217,20:51:25,10_1,0,rey_trial5_recall,0,trial5_recall_response12,0,0,0,0,0,0,0,0,500,1700,0,0,school,2200,0,0,0,rightarrow.jpg,rightarrow.jpg,rightarrow.jpg,rightarrow.jpg,rightarrow.jpg,0,0,05.0.6.0,win,21217,20:51:25,10_1,0,rey_trial5_recall,0,trial5_recall_response13,0,0,0,0,0,0,0,0,500,1700,0,0,moon,1683,0,0,0,rightarrow.jpg,rightarrow.jpg,rightarrow.jpg,rightarrow.jpg,rightarrow.jpg,0,0,05.0.6.0,win,21217,20:51:25,10_1,0,rey_trial5_recall,0,trial5_recall_response14,0,0,0,0,0,0,0,0,500,1700,0,0,bell,2506,0,0,0,rightarrow.jpg,rightarrow.jpg,rightarrow.jpg,rightarrow.jpg,rightarrow.jpg,0,0,05.0.6.0,win,21217,20:51:25,10_1,0,rey_trial5_recall,0,trial5_recall_response15,0,0,0,0,0,0,0,0,500,1700,0,0,color,7520,0,0,0,rightarrow.jpg,rightarrow.jpg,rightarrow.jpg,rightarrow.jpg,rightarrow.jpg,0,0,05.0.6.0,win,21217,20:51:25,10_1,0,rey_trial5_recall,0,trial5_recall_response16,0,0,0,0,0,0,0,0,500,1700,0,0,nose,1744,0,0,0,rightarrow.jpg,rightarrow.jpg,rightarrow.jpg,rightarrow.jpg,rightarrow.jpg,0,0,05.0.6.0,win,21217,20:51:25,10_1,0,rey_trial5_recall,0,trial5_recall_response17,0,0,0,0,0,0,0,0,500,1700,0,0,,303,0,0,0,rightarrow.jpg,rightarrow.jpg,rightarrow.jpg,rightarrow.jpg,rightarrow.jpg,0,0,05.0.6.0,win,21217,20:51:25,10_1,0,rey_listb_pres_instruct,0,listb_pres_instruct1,0,0,0,0,0,0,0,0,500,1700,0,0,28,800,0,0,0,rightarrow.jpg,rightarrow.jpg,rightarrow.jpg,rightarrow.jpg,rightarrow.jpg,0,0,05.0.6.0,win,21217,20:51:25,10_1,0,rey_listb_pres_instruct,0,listb_pres_instruct2,0,0,0,0,0,0,0,0,500,1700,0,0,57,1664,0,0,0,rightarrow.jpg,rightarrow.jpg,rightarrow.jpg,rightarrow.jpg,rightarrow.jpg,0,0,05.0.6.0,win,21217,20:51:25,10_1,0,rey_listb_pres_1b,0,rey_list_presentation_1b,0,0,0,0,0,0,0,0,500,1700,0,0,0,1000,0,0,0,rightarrow.jpg,rightarrow.jpg,rightarrow.jpg,rightarrow.jpg,rightarrow.jpg,0,0,05.0.6.0,win,21217,20:51:25,10_1,0,rey_listb_pres_1b,0,rey_list_presentation_1b,0,0,0,0,0,0,0,0,500,1700,0,0,0,1000,0,0,0,rightarrow.jpg,rightarrow.jpg,rightarrow.jpg,rightarrow.jpg,rightarrow.jpg,0,0,05.0.6.0,win,21217,20:51:25,10_1,0,rey_listb_pres_1b,0,rey_list_presentation_1b,0,0,0,0,0,0,0,0,500,1700,0,0,0,1000,0,0,0,rightarrow.jpg,rightarrow.jpg,rightarrow.jpg,rightarrow.jpg,rightarrow.jpg,0,0,05.0.6.0,win,21217,20:51:25,10_1,0,rey_listb_pres_1b,0,rey_list_presentation_1b,0,0,0,0,0,0,0,0,500,1700,0,0,0,1000,0,0,0,rightarrow.jpg,rightarrow.jpg,rightarrow.jpg,rightarrow.jpg,rightarrow.jpg,0,0,05.0.6.0,win,21217,20:51:25,10_1,0,rey_listb_pres_1b,0,rey_list_presentation_1b,0,0,0,0,0,0,0,0,500,1700,0,0,0,1000,0,0,0,rightarrow.jpg,rightarrow.jpg,rightarrow.jpg,rightarrow.jpg,rightarrow.jpg,0,0,05.0.6.0,win,21217,20:51:25,10_1,0,rey_listb_pres_1b,0,rey_list_presentation_1b,0,0,0,0,0,0,0,0,500,1700,0,0,0,1000,0,0,0,rightarrow.jpg,rightarrow.jpg,rightarrow.jpg,rightarrow.jpg,rightarrow.jpg,0,0,05.0.6.0,win,21217,20:51:25,10_1,0,rey_listb_pres_1b,0,rey_list_presentation_1b,0,0,0,0,0,0,0,0,500,1700,0,0,0,1000,0,0,0,rightarrow.jpg,rightarrow.jpg,rightarrow.jpg,rightarrow.jpg,rightarrow.jpg,0,0,05.0.6.0,win,21217,20:51:25,10_1,0,rey_listb_pres_1b,0,rey_list_presentation_1b,0,0,0,0,0,0,0,0,500,1700,0,0,0,1000,0,0,0,rightarrow.jpg,rightarrow.jpg,rightarrow.jpg,rightarrow.jpg,rightarrow.jpg,0,0,05.0.6.0,win,21217,20:51:25,10_1,0,rey_listb_pres_1b,0,rey_list_presentation_1b,0,0,0,0,0,0,0,0,500,1700,0,0,0,1000,0,0,0,rightarrow.jpg,rightarrow.jpg,rightarrow.jpg,rightarrow.jpg,rightarrow.jpg,0,0,05.0.6.0,win,21217,20:51:25,10_1,0,rey_listb_pres_1b,0,rey_list_presentation_1b,0,0,0,0,0,0,0,0,500,1700,0,0,0,1000,0,0,0,rightarrow.jpg,rightarrow.jpg,rightarrow.jpg,rightarrow.jpg,rightarrow.jpg,0,0,05.0.6.0,win,21217,20:51:25,10_1,0,rey_listb_pres_1b,0,rey_list_presentation_1b,0,0,0,0,0,0,0,0,500,1700,0,0,0,1000,0,0,0,rightarrow.jpg,rightarrow.jpg,rightarrow.jpg,rightarrow.jpg,rightarrow.jpg,0,0,05.0.6.0,win,21217,20:51:25,10_1,0,rey_listb_pres_1b,0,rey_list_presentation_1b,0,0,0,0,0,0,0,0,500,1700,0,0,0,1000,0,0,0,rightarrow.jpg,rightarrow.jpg,rightarrow.jpg,rightarrow.jpg,rightarrow.jpg,0,0,05.0.6.0,win,21217,20:51:25,10_1,0,rey_listb_pres_1b,0,rey_list_presentation_1b,0,0,0,0,0,0,0,0,500,1700,0,0,0,1000,0,0,0,rightarrow.jpg,rightarrow.jpg,rightarrow.jpg,rightarrow.jpg,rightarrow.jpg,0,0,05.0.6.0,win,21217,20:51:25,10_1,0,rey_listb_pres_1b,0,rey_list_presentation_1b,0,0,0,0,0,0,0,0,500,1700,0,0,0,1000,0,0,0,rightarrow.jpg,rightarrow.jpg,rightarrow.jpg,rightarrow.jpg,rightarrow.jpg,0,0,05.0.6.0,win,21217,20:51:25,10_1,0,rey_listb_pres_1b,0,rey_list_presentation_1b,0,0,0,0,0,0,0,0,500,1700,0,0,0,1000,0,0,0,rightarrow.jpg,rightarrow.jpg,rightarrow.jpg,rightarrow.jpg,rightarrow.jpg,0,0,05.0.6.0,win,21217,20:51:25,10_1,0,rey_listb_recall,0,listb_recall_response1,0,0,0,0,0,0,0,0,500,1700,0,0,boar,3639,0,0,0,rightarrow.jpg,rightarrow.jpg,rightarrow.jpg,rightarrow.jpg,rightarrow.jpg,0,0,05.0.6.0,win,21217,20:51:25,10_1,0,rey_listb_recall,0,listb_recall_response2,0,0,0,0,0,0,0,0,500,1700,0,0,gun,1018,0,0,0,rightarrow.jpg,rightarrow.jpg,rightarrow.jpg,rightarrow.jpg,rightarrow.jpg,0,0,05.0.6.0,win,21217,20:51:25,10_1,0,rey_listb_recall,0,listb_recall_response3,0,0,0,0,0,0,0,0,500,1700,0,0,pencil,2535,0,0,0,rightarrow.jpg,rightarrow.jpg,rightarrow.jpg,rightarrow.jpg,rightarrow.jpg,0,0,05.0.6.0,win,21217,20:51:25,10_1,0,rey_listb_recall,0,listb_recall_response4,0,0,0,0,0,0,0,0,500,1700,0,0,church,2054,0,0,0,rightarrow.jpg,rightarrow.jpg,rightarrow.jpg,rightarrow.jpg,rightarrow.jpg,0,0,05.0.6.0,win,21217,20:51:25,10_1,0,rey_listb_recall,0,listb_recall_response5,0,0,0,0,0,0,0,0,500,1700,0,0,fish,1394,0,0,0,rightarrow.jpg,rightarrow.jpg,rightarrow.jpg,rightarrow.jpg,rightarrow.jpg,0,0,05.0.6.0,win,21217,20:51:25,10_1,0,rey_listb_recall,0,listb_recall_response6,0,0,0,0,0,0,0,0,500,1700,0,0,bird,1343,0,0,0,rightarrow.jpg,rightarrow.jpg,rightarrow.jpg,rightarrow.jpg,rightarrow.jpg,0,0,05.0.6.0,win,21217,20:51:25,10_1,0,rey_listb_recall,0,listb_recall_response7,0,0,0,0,0,0,0,0,500,1700,0,0,mount,22888,0,0,0,rightarrow.jpg,rightarrow.jpg,rightarrow.jpg,rightarrow.jpg,rightarrow.jpg,0,0,05.0.6.0,win,21217,20:51:25,10_1,0,rey_listb_recall,0,listb_recall_response8,0,0,0,0,0,0,0,0,500,1700,0,0,church,10480,0,0,0,rightarrow.jpg,rightarrow.jpg,rightarrow.jpg,rightarrow.jpg,rightarrow.jpg,0,0,05.0.6.0,win,21217,20:51:25,10_1,0,rey_listb_recall,0,listb_recall_response9,0,0,0,0,0,0,0,0,500,1700,0,0,cloud,6895,0,0,0,rightarrow.jpg,rightarrow.jpg,rightarrow.jpg,rightarrow.jpg,rightarrow.jpg,0,0,05.0.6.0,win,21217,20:51:25,10_1,0,rey_listb_recall,0,listb_recall_response10,0,0,0,0,0,0,0,0,500,1700,0,0,,1693,0,0,0,rightarrow.jpg,rightarrow.jpg,rightarrow.jpg,rightarrow.jpg,rightarrow.jpg,0,0,05.0.6.0,win,21217,20:51:25,10_1,0,rey_trial6_pres_instruct,0,trial6_pres_instruct2,0,0,0,0,0,0,0,0,500,1700,0,0,28,318,0,0,0,rightarrow.jpg,rightarrow.jpg,rightarrow.jpg,rightarrow.jpg,rightarrow.jpg,0,0,05.0.6.0,win,21217,20:51:25,10_1,0,rey_trial6_pres_instruct,0,trial6_pres_instruct3,0,0,0,0,0,0,0,0,500,1700,0,0,28,10,0,0,0,rightarrow.jpg,rightarrow.jpg,rightarrow.jpg,rightarrow.jpg,rightarrow.jpg,0,0,05.0.6.0,win,21217,20:51:25,10_1,0,rey_trial6_recall,0,trial6_recall_response1,0,0,0,0,0,0,0,0,500,1700,0,0,farmer,3668,0,0,0,rightarrow.jpg,rightarrow.jpg,rightarrow.jpg,rightarrow.jpg,rightarrow.jpg,0,0,05.0.6.0,win,21217,20:51:25,10_1,0,rey_trial6_recall,0,trial6_recall_response2,0,0,0,0,0,0,0,0,500,1700,0,0,hat,1355,0,0,0,rightarrow.jpg,rightarrow.jpg,rightarrow.jpg,rightarrow.jpg,rightarrow.jpg,0,0,05.0.6.0,win,21217,20:51:25,10_1,0,rey_trial6_recall,0,trial6_recall_response3,0,0,0,0,0,0,0,0,500,1700,0,0,color,2153,0,0,0,rightarrow.jpg,rightarrow.jpg,rightarrow.jpg,rightarrow.jpg,rightarrow.jpg,0,0,05.0.6.0,win,21217,20:51:25,10_1,0,rey_trial6_recall,0,trial6_recall_response4,0,0,0,0,0,0,0,0,500,1700,0,0,bell,2370,0,0,0,rightarrow.jpg,rightarrow.jpg,rightarrow.jpg,rightarrow.jpg,rightarrow.jpg,0,0,05.0.6.0,win,21217,20:51:25,10_1,0,rey_trial6_recall,0,trial6_recall_response5,0,0,0,0,0,0,0,0,500,1700,0,0,coffee,1768,0,0,0,rightarrow.jpg,rightarrow.jpg,rightarrow.jpg,rightarrow.jpg,rightarrow.jpg,0,0,05.0.6.0,win,21217,20:51:25,10_1,0,rey_trial6_recall,0,trial6_recall_response6,0,0,0,0,0,0,0,0,500,1700,0,0,garden,2629,0,0,0,rightarrow.jpg,rightarrow.jpg,rightarrow.jpg,rightarrow.jpg,rightarrow.jpg,0,0,05.0.6.0,win,21217,20:51:25,10_1,0,rey_trial6_recall,0,trial6_recall_response7,0,0,0,0,0,0,0,0,500,1700,0,0,parent,2371,0,0,0,rightarrow.jpg,rightarrow.jpg,rightarrow.jpg,rightarrow.jpg,rightarrow.jpg,0,0,05.0.6.0,win,21217,20:51:25,10_1,0,rey_trial6_recall,0,trial6_recall_response8,0,0,0,0,0,0,0,0,500,1700,0,0,school,2108,0,0,0,rightarrow.jpg,rightarrow.jpg,rightarrow.jpg,rightarrow.jpg,rightarrow.jpg,0,0,05.0.6.0,win,21217,20:51:25,10_1,0,rey_trial6_recall,0,trial6_recall_response9,0,0,0,0,0,0,0,0,500,1700,0,0,moon,36577,0,0,0,rightarrow.jpg,rightarrow.jpg,rightarrow.jpg,rightarrow.jpg,rightarrow.jpg,0,0,05.0.6.0,win,21217,20:51:25,10_1,0,rey_trial6_recall,0,trial6_recall_response10,0,0,0,0,0,0,0,0,500,1700,0,0,nose,1266,0,0,0,rightarrow.jpg,rightarrow.jpg,rightarrow.jpg,rightarrow.jpg,rightarrow.jpg,0,0,05.0.6.0,win,21217,20:51:25,10_1,0,rey_trial6_recall,0,trial6_recall_response11,0,0,0,0,0,0,0,0,500,1700,0,0,bell,17158,0,0,0,rightarrow.jpg,rightarrow.jpg,rightarrow.jpg,rightarrow.jpg,rightarrow.jpg,0,0,05.0.6.0,win,21217,20:51:25,10_1,0,rey_trial6_recall,0,trial6_recall_response12,0,0,0,0,0,0,0,0,500,1700,0,0,,5579,0,0,0,rightarrow.jpg,rightarrow.jpg,rightarrow.jpg,rightarrow.jpg,rightarrow.jpg,0,0,05.0.6.0,win,21217,20:51:25,10_1,0,ant_transition,0,ant_transition_page,0,0,0,0,0,0,0,0,500,1700,0,0,28,1330,0,0,0,rightarrow.jpg,rightarrow.jpg,rightarrow.jpg,rightarrow.jpg,rightarrow.jpg,0,0,05.0.6.0,win,21217,20:51:25,10_1,0,intro,0,welcome,0,0,0,0,0,0,0,0,500,1700,0,0,57,1679,0,0,0,rightarrow.jpg,rightarrow.jpg,rightarrow.jpg,rightarrow.jpg,rightarrow.jpg,0,0,05.0.6.0,win,21217,20:51:25,10_1,0,intro,0,intro1,0,0,0,0,0,0,0,0,500,1700,0,0,18,53814,0,0,0,rightarrow.jpg,rightarrow.jpg,rightarrow.jpg,rightarrow.jpg,rightarrow.jpg,0,0,05.0.6.0,win,21217,20:51:25,10_1,0,intro,0,intro2,0,0,0,0,0,0,0,0,500,1700,0,0,23,31411,0,0,0,rightarrow.jpg,rightarrow.jpg,rightarrow.jpg,rightarrow.jpg,rightarrow.jpg,0,0,05.0.6.0,win,21217,20:51:25,10_1,0,intro,0,intro3,0,0,0,0,0,0,0,0,500,1700,0,0,57,3606,0,0,0,rightarrow.jpg,rightarrow.jpg,rightarrow.jpg,rightarrow.jpg,rightarrow.jpg,0,0,05.0.6.0,win,21217,20:51:25,10_1,1,ANT_R,1,validspatialcue1,1,3,valid,1,2,2,1,0,500,1700,2625,0,18,559,1,1,1,leftarrow.jpg,leftarrow.jpg,leftarrow.jpg,leftarrow.jpg,leftarrow.jpg,32.5pct,26.5pct,32.5pct5.0.6.0,win,21217,20:51:25,10_1,1,ANT_R,2,invalidspatialcue,2,6,invalid,2,2,2,1,0,500,1700,2505,0,18,761,1,1,1,rightarrow.jpg,rightarrow.jpg,leftarrow.jpg,rightarrow.jpg,rightarrow.jpg,32.5pct,26.5pct,67.5pct5.0.6.0,win,21217,20:51:25,10_1,1,ANT_R,3,validspatialcue1,3,3,valid,2,2,2,1,800,500,1700,2101,0,18,505,1,1,1,rightarrow.jpg,rightarrow.jpg,leftarrow.jpg,rightarrow.jpg,rightarrow.jpg,32.5pct,26.5pct,32.5pct5.0.6.0,win,21217,20:51:25,10_1,1,ANT_R,4,validspatialcue3,4,5,valid,2,1,1,1,400,500,1700,3587,0,23,597,1,1,1,leftarrow.jpg,leftarrow.jpg,rightarrow.jpg,leftarrow.jpg,leftarrow.jpg,67.5pct,61.5pct,67.5pct5.0.6.0,win,21217,20:51:25,10_1,1,ANT_R,5,doublecue,5,2,double,2,1,1,1,400,500,1700,2636,0,18,470,1,0,0,leftarrow.jpg,leftarrow.jpg,rightarrow.jpg,leftarrow.jpg,leftarrow.jpg,67.5pct,61.5pct,67.5pct5.0.6.0,win,21217,20:51:25,10_1,1,ANT_R,6,validspatialcue2,6,4,valid,2,1,2,2,400,500,1700,3694,0,18,580,1,1,1,rightarrow.jpg,rightarrow.jpg,leftarrow.jpg,rightarrow.jpg,rightarrow.jpg,67.5pct,61.5pct,67.5pct5.0.6.0,win,21217,20:51:25,10_1,1,ANT_R,7,doublecue,7,2,double,1,2,1,2,400,500,1700,3466,0,23,442,1,1,1,rightarrow.jpg,rightarrow.jpg,rightarrow.jpg,rightarrow.jpg,rightarrow.jpg,32.5pct,26.5pct,67.5pct5.0.6.0,win,21217,20:51:25,10_1,1,ANT_R,8,validspatialcue3,8,5,valid,1,2,1,2,0,500,1700,3045,0,23,405,1,1,1,rightarrow.jpg,rightarrow.jpg,rightarrow.jpg,rightarrow.jpg,rightarrow.jpg,32.5pct,26.5pct,32.5pct5.0.6.0,win,21217,20:51:25,10_1,1,ANT_R,9,validspatialcue3,9,5,valid,1,1,2,2,400,500,1700,2507,0,18,254,1,1,1,leftarrow.jpg,leftarrow.jpg,leftarrow.jpg,leftarrow.jpg,leftarrow.jpg,67.5pct,61.5pct,67.5pct5.0.6.0,win,21217,20:51:25,10_1,1,ANT_R,10,validspatialcue2,10,4,valid,2,2,2,1,800,500,1700,2380,0,18,451,1,1,1,rightarrow.jpg,rightarrow.jpg,leftarrow.jpg,rightarrow.jpg,rightarrow.jpg,32.5pct,26.5pct,32.5pct5.0.6.0,win,21217,20:51:25,10_1,1,ANT_R,11,invalidspatialcue,11,6,invalid,1,2,2,1,800,500,1700,2817,0,18,501,1,1,1,leftarrow.jpg,leftarrow.jpg,leftarrow.jpg,leftarrow.jpg,leftarrow.jpg,32.5pct,26.5pct,67.5pct5.0.6.0,win,21217,20:51:25,10_1,1,ANT_R,12,validspatialcue2,12,4,valid,1,1,2,2,400,500,1700,3266,0,18,458,1,1,1,leftarrow.jpg,leftarrow.jpg,leftarrow.jpg,leftarrow.jpg,leftarrow.jpg,67.5pct,61.5pct,67.5pct5.0.6.0,win,21217,20:51:25,10_1,1,ANT_R,13,validspatialcue1,13,3,valid,1,1,2,2,800,500,1700,2867,0,18,341,1,1,1,leftarrow.jpg,leftarrow.jpg,leftarrow.jpg,leftarrow.jpg,leftarrow.jpg,67.5pct,61.5pct,67.5pct5.0.6.0,win,21217,20:51:25,10_1,1,ANT_R,14,validspatialcue1,14,3,valid,2,2,1,2,0,500,1700,2977,0,23,552,1,1,1,leftarrow.jpg,leftarrow.jpg,rightarrow.jpg,leftarrow.jpg,leftarrow.jpg,32.5pct,26.5pct,32.5pct5.0.6.0,win,21217,20:51:25,10_1,1,ANT_R,15,validspatialcue2,15,4,valid,2,2,2,1,0,500,1700,2081,0,18,537,1,1,1,rightarrow.jpg,rightarrow.jpg,leftarrow.jpg,rightarrow.jpg,rightarrow.jpg,32.5pct,26.5pct,32.5pct5.0.6.0,win,21217,20:51:25,10_1,1,ANT_R,16,validspatialcue2,16,4,valid,1,2,2,1,400,500,1700,2957,0,18,350,1,1,1,leftarrow.jpg,leftarrow.jpg,leftarrow.jpg,leftarrow.jpg,leftarrow.jpg,32.5pct,26.5pct,32.5pct5.0.6.0,win,21217,20:51:25,10_1,1,ANT_R,17,nocue,17,1,NA,1,2,2,1,400,500,1700,2812,0,18,391,1,1,1,leftarrow.jpg,leftarrow.jpg,leftarrow.jpg,leftarrow.jpg,leftarrow.jpg,32.5pct,26.5pct,50pct5.0.6.0,win,21217,20:51:25,10_1,1,ANT_R,18,validspatialcue1,18,3,valid,2,2,2,1,0,500,1700,3172,0,23,420,1,0,0,rightarrow.jpg,rightarrow.jpg,leftarrow.jpg,rightarrow.jpg,rightarrow.jpg,32.5pct,26.5pct,32.5pct5.0.6.0,win,21217,20:51:25,10_1,1,ANT_R,19,nocue,19,1,NA,1,1,1,1,0,500,1700,3358,0,23,458,1,1,1,rightarrow.jpg,rightarrow.jpg,rightarrow.jpg,rightarrow.jpg,rightarrow.jpg,67.5pct,61.5pct,50pct5.0.6.0,win,21217,20:51:25,10_1,1,ANT_R,20,validspatialcue3,20,5,valid,2,2,1,2,0,500,1700,3428,0,18,340,1,0,0,leftarrow.jpg,leftarrow.jpg,rightarrow.jpg,leftarrow.jpg,leftarrow.jpg,32.5pct,26.5pct,32.5pct5.0.6.0,win,21217,20:51:25,10_1,1,ANT_R,21,invalidspatialcue,21,6,invalid,1,2,1,2,800,500,1700,2009,0,18,587,1,0,0,rightarrow.jpg,rightarrow.jpg,rightarrow.jpg,rightarrow.jpg,rightarrow.jpg,32.5pct,26.5pct,67.5pct5.0.6.0,win,21217,20:51:25,10_1,1,ANT_R,22,nocue,22,1,NA,2,1,2,2,0,500,1700,3394,0,18,838,1,1,1,rightarrow.jpg,rightarrow.jpg,leftarrow.jpg,rightarrow.jpg,rightarrow.jpg,67.5pct,61.5pct,50pct5.0.6.0,win,21217,20:51:25,10_1,1,ANT_R,23,invalidspatialcue,23,6,invalid,2,1,1,1,400,500,1700,2752,0,23,582,1,1,1,leftarrow.jpg,leftarrow.jpg,rightarrow.jpg,leftarrow.jpg,leftarrow.jpg,67.5pct,61.5pct,32.5pct5.0.6.0,win,21217,20:51:25,10_1,1,ANT_R,24,doublecue,24,2,double,2,2,1,2,0,500,1700,2920,0,0,1700,1,0,0,leftarrow.jpg,leftarrow.jpg,rightarrow.jpg,leftarrow.jpg,leftarrow.jpg,32.5pct,26.5pct,67.5pct5.0.6.0,win,21217,20:51:25,10_1,1,ANT_R,25,nocue,25,1,NA,2,2,2,1,800,500,1700,2708,0,23,383,1,0,0,rightarrow.jpg,rightarrow.jpg,leftarrow.jpg,rightarrow.jpg,rightarrow.jpg,32.5pct,26.5pct,50pct5.0.6.0,win,21217,20:51:25,10_1,1,ANT_R,26,validspatialcue2,26,4,valid,1,1,1,1,400,500,1700,2666,0,23,266,1,1,1,rightarrow.jpg,rightarrow.jpg,rightarrow.jpg,rightarrow.jpg,rightarrow.jpg,67.5pct,61.5pct,67.5pct5.0.6.0,win,21217,20:51:25,10_1,1,ANT_R,27,validspatialcue3,27,5,valid,1,1,1,1,800,500,1700,2767,0,23,292,1,1,1,rightarrow.jpg,rightarrow.jpg,rightarrow.jpg,rightarrow.jpg,rightarrow.jpg,67.5pct,61.5pct,67.5pct5.0.6.0,win,21217,20:51:25,10_1,1,ANT_R,28,nocue,28,1,NA,1,1,2,2,800,500,1700,3558,0,18,402,1,1,1,leftarrow.jpg,leftarrow.jpg,leftarrow.jpg,leftarrow.jpg,leftarrow.jpg,67.5pct,61.5pct,50pct5.0.6.0,win,21217,20:51:25,10_1,1,ANT_R,29,doublecue,29,2,double,1,2,2,1,800,500,1700,2547,0,18,341,1,1,1,leftarrow.jpg,leftarrow.jpg,leftarrow.jpg,leftarrow.jpg,leftarrow.jpg,32.5pct,26.5pct,67.5pct5.0.6.0,win,21217,20:51:25,10_1,1,ANT_R,30,doublecue,30,2,double,2,1,2,2,0,500,1700,3003,0,23,371,1,0,0,rightarrow.jpg,rightarrow.jpg,leftarrow.jpg,rightarrow.jpg,rightarrow.jpg,67.5pct,61.5pct,67.5pct5.0.6.0,win,21217,20:51:25,10_1,1,ANT_R,31,invalidspatialcue,31,6,invalid,1,2,2,1,0,500,1700,2229,0,18,490,1,1,1,leftarrow.jpg,leftarrow.jpg,leftarrow.jpg,leftarrow.jpg,leftarrow.jpg,32.5pct,26.5pct,67.5pct5.0.6.0,win,21217,20:51:25,10_1,1,ANT_R,32,invalidspatialcue,32,6,invalid,1,1,1,1,0,500,1700,2353,0,23,369,1,1,1,rightarrow.jpg,rightarrow.jpg,rightarrow.jpg,rightarrow.jpg,rightarrow.jpg,67.5pct,61.5pct,32.5pct5.0.6.0,win,21217,20:51:25,10_1,1,ANT_R,33,validspatialcue3,33,5,valid,1,1,2,2,0,500,1700,3089,0,18,413,1,1,1,leftarrow.jpg,leftarrow.jpg,leftarrow.jpg,leftarrow.jpg,leftarrow.jpg,67.5pct,61.5pct,67.5pct5.0.6.0,win,21217,20:51:25,10_1,1,ANT_R,34,validspatialcue1,34,3,valid,1,2,1,2,0,500,1700,2077,0,23,342,1,1,1,rightarrow.jpg,rightarrow.jpg,rightarrow.jpg,rightarrow.jpg,rightarrow.jpg,32.5pct,26.5pct,32.5pct5.0.6.0,win,21217,20:51:25,10_1,1,ANT_R,35,doublecue,35,2,double,1,1,1,1,400,500,1700,3601,0,23,356,1,1,1,rightarrow.jpg,rightarrow.jpg,rightarrow.jpg,rightarrow.jpg,rightarrow.jpg,67.5pct,61.5pct,67.5pct5.0.6.0,win,21217,20:51:25,10_1,1,ANT_R,36,validspatialcue1,36,3,valid,2,1,2,2,800,500,1700,3273,0,18,2,1,1,1,rightarrow.jpg,rightarrow.jpg,leftarrow.jpg,rightarrow.jpg,rightarrow.jpg,67.5pct,61.5pct,67.5pct5.0.6.0,win,21217,20:51:25,10_1,1,ANT_R,37,validspatialcue3,37,5,valid,2,1,2,2,800,500,1700,2291,0,18,49,1,1,1,rightarrow.jpg,rightarrow.jpg,leftarrow.jpg,rightarrow.jpg,rightarrow.jpg,67.5pct,61.5pct,67.5pct5.0.6.0,win,21217,20:51:25,10_1,1,ANT_R,38,validspatialcue1,38,3,valid,2,1,2,2,0,500,1700,2019,0,18,72,1,1,1,rightarrow.jpg,rightarrow.jpg,leftarrow.jpg,rightarrow.jpg,rightarrow.jpg,67.5pct,61.5pct,67.5pct5.0.6.0,win,21217,20:51:25,10_1,1,ANT_R,39,validspatialcue2,39,4,valid,2,2,2,1,400,500,1700,2743,0,23,3,1,0,0,rightarrow.jpg,rightarrow.jpg,leftarrow.jpg,rightarrow.jpg,rightarrow.jpg,32.5pct,26.5pct,32.5pct5.0.6.0,win,21217,20:51:25,10_1,1,ANT_R,40,invalidspatialcue,40,6,invalid,2,1,2,2,800,500,1700,2934,0,23,137,1,0,0,rightarrow.jpg,rightarrow.jpg,leftarrow.jpg,rightarrow.jpg,rightarrow.jpg,67.5pct,61.5pct,32.5pct5.0.6.0,win,21217,20:51:25,10_1,1,ANT_R,41,invalidspatialcue,41,6,invalid,2,1,1,1,0,500,1700,3254,0,23,66,1,1,1,leftarrow.jpg,leftarrow.jpg,rightarrow.jpg,leftarrow.jpg,leftarrow.jpg,67.5pct,61.5pct,32.5pct5.0.6.0,win,21217,20:51:25,10_1,1,ANT_R,42,validspatialcue1,42,3,valid,1,2,1,2,400,500,1700,2090,0,23,76,1,1,1,rightarrow.jpg,rightarrow.jpg,rightarrow.jpg,rightarrow.jpg,rightarrow.jpg,32.5pct,26.5pct,32.5pct5.0.6.0,win,21217,20:51:25,10_1,1,ANT_R,43,validspatialcue1,43,3,valid,1,1,2,2,400,500,1700,2049,0,23,626,1,0,0,leftarrow.jpg,leftarrow.jpg,leftarrow.jpg,leftarrow.jpg,leftarrow.jpg,67.5pct,61.5pct,67.5pct5.0.6.0,win,21217,20:51:25,10_1,1,ANT_R,44,nocue,44,1,NA,1,2,1,2,0,500,1700,3049,0,18,55,1,0,0,rightarrow.jpg,rightarrow.jpg,rightarrow.jpg,rightarrow.jpg,rightarrow.jpg,32.5pct,26.5pct,50pct5.0.6.0,win,21217,20:51:25,10_1,1,ANT_R,45,nocue,45,1,NA,2,2,1,2,400,500,1700,3088,0,23,38,1,1,1,leftarrow.jpg,leftarrow.jpg,rightarrow.jpg,leftarrow.jpg,leftarrow.jpg,32.5pct,26.5pct,50pct5.0.6.0,win,21217,20:51:25,10_1,1,ANT_R,46,nocue,46,1,NA,1,1,2,2,0,500,1700,2233,0,23,18,1,0,0,leftarrow.jpg,leftarrow.jpg,leftarrow.jpg,leftarrow.jpg,leftarrow.jpg,67.5pct,61.5pct,50pct5.0.6.0,win,21217,20:51:25,10_1,1,ANT_R,47,validspatialcue2,47,4,valid,1,1,1,1,800,500,1700,3045,0,18,41,1,0,0,rightarrow.jpg,rightarrow.jpg,rightarrow.jpg,rightarrow.jpg,rightarrow.jpg,67.5pct,61.5pct,67.5pct5.0.6.0,win,21217,20:51:25,10_1,1,ANT_R,48,nocue,48,1,NA,1,1,1,1,800,500,1700,2233,0,18,32,1,0,0,rightarrow.jpg,rightarrow.jpg,rightarrow.jpg,rightarrow.jpg,rightarrow.jpg,67.5pct,61.5pct,50pct5.0.6.0,win,21217,20:51:25,10_1,1,ANT_R,49,doublecue,49,2,double,1,1,2,2,800,500,1700,3552,0,18,173,1,1,1,leftarrow.jpg,leftarrow.jpg,leftarrow.jpg,leftarrow.jpg,leftarrow.jpg,67.5pct,61.5pct,67.5pct5.0.6.0,win,21217,20:51:25,10_1,1,ANT_R,50,nocue,50,1,NA,2,1,2,2,800,500,1700,2367,0,0,1700,1,0,0,rightarrow.jpg,rightarrow.jpg,leftarrow.jpg,rightarrow.jpg,rightarrow.jpg,67.5pct,61.5pct,50pct5.0.6.0,win,21217,20:51:25,10_1,1,ANT_R,51,validspatialcue1,51,3,valid,2,1,1,1,400,500,1700,3657,0,0,1700,1,0,0,leftarrow.jpg,leftarrow.jpg,rightarrow.jpg,leftarrow.jpg,leftarrow.jpg,67.5pct,61.5pct,67.5pct5.0.6.0,win,21217,20:51:25,10_1,1,ANT_R,52,doublecue,52,2,double,1,2,2,1,400,500,1700,2607,0,0,1700,1,0,0,leftarrow.jpg,leftarrow.jpg,leftarrow.jpg,leftarrow.jpg,leftarrow.jpg,32.5pct,26.5pct,67.5pct5.0.6.0,win,21217,20:51:25,10_1,1,ANT_R,53,invalidspatialcue,53,6,invalid,2,1,2,2,400,500,1700,3152,0,0,1700,1,0,0,rightarrow.jpg,rightarrow.jpg,leftarrow.jpg,rightarrow.jpg,rightarrow.jpg,67.5pct,61.5pct,32.5pct5.0.6.0,win,21217,20:51:25,10_1,1,ANT_R,54,nocue,54,1,NA,1,2,2,1,800,500,1700,3381,0,0,1700,1,0,0,leftarrow.jpg,leftarrow.jpg,leftarrow.jpg,leftarrow.jpg,leftarrow.jpg,32.5pct,26.5pct,50pct5.0.6.0,win,21217,20:51:25,10_1,1,ANT_R,55,validspatialcue3,55,5,valid,1,1,2,2,800,500,1700,3565,0,0,1700,1,0,0,leftarrow.jpg,leftarrow.jpg,leftarrow.jpg,leftarrow.jpg,leftarrow.jpg,67.5pct,61.5pct,67.5pct5.0.6.0,win,21217,20:51:25,10_1,1,ANT_R,56,validspatialcue2,56,4,valid,2,2,1,2,0,500,1700,2783,0,0,1700,1,0,0,leftarrow.jpg,leftarrow.jpg,rightarrow.jpg,leftarrow.jpg,leftarrow.jpg,32.5pct,26.5pct,32.5pct5.0.6.0,win,21217,20:51:25,10_1,1,ANT_R,57,doublecue,57,2,double,1,2,1,2,800,500,1700,3182,0,0,1700,1,0,0,rightarrow.jpg,rightarrow.jpg,rightarrow.jpg,rightarrow.jpg,rightarrow.jpg,32.5pct,26.5pct,67.5pct5.0.6.0,win,21217,20:51:25,10_1,1,ANT_R,58,validspatialcue2,58,4,valid,1,2,1,2,400,500,1700,3517,0,0,1700,1,0,0,rightarrow.jpg,rightarrow.jpg,rightarrow.jpg,rightarrow.jpg,rightarrow.jpg,32.5pct,26.5pct,32.5pct5.0.6.0,win,21217,20:51:25,10_1,1,ANT_R,59,validspatialcue3,59,5,valid,2,1,2,2,400,500,1700,3557,0,0,1700,1,0,0,rightarrow.jpg,rightarrow.jpg,leftarrow.jpg,rightarrow.jpg,rightarrow.jpg,67.5pct,61.5pct,67.5pct5.0.6.0,win,21217,20:51:25,10_1,1,ANT_R,60,doublecue,60,2,double,1,2,1,2,0,500,1700,3692,0,0,1700,1,0,0,rightarrow.jpg,rightarrow.jpg,rightarrow.jpg,rightarrow.jpg,rightarrow.jpg,32.5pct,26.5pct,67.5pct5.0.6.0,win,21217,20:51:25,10_1,1,ANT_R,61,validspatialcue1,61,3,valid,2,2,1,2,400,500,1700,2143,0,0,1700,1,0,0,leftarrow.jpg,leftarrow.jpg,rightarrow.jpg,leftarrow.jpg,leftarrow.jpg,32.5pct,26.5pct,32.5pct5.0.6.0,win,21217,20:51:25,10_1,1,ANT_R,62,invalidspatialcue,62,6,invalid,2,2,1,2,400,500,1700,2488,0,0,1700,1,0,0,leftarrow.jpg,leftarrow.jpg,rightarrow.jpg,leftarrow.jpg,leftarrow.jpg,32.5pct,26.5pct,67.5pct5.0.6.0,win,21217,20:51:25,10_1,1,ANT_R,63,doublecue,63,2,double,2,2,1,2,800,500,1700,2227,0,0,1700,1,0,0,leftarrow.jpg,leftarrow.jpg,rightarrow.jpg,leftarrow.jpg,leftarrow.jpg,32.5pct,26.5pct,67.5pct5.0.6.0,win,21217,20:51:25,10_1,1,ANT_R,64,doublecue,64,2,double,2,2,2,1,400,500,1700,2717,0,0,1700,1,0,0,rightarrow.jpg,rightarrow.jpg,leftarrow.jpg,rightarrow.jpg,rightarrow.jpg,32.5pct,26.5pct,67.5pct5.0.6.0,win,21217,20:51:25,10_1,1,ANT_R,65,validspatialcue3,65,5,valid,2,1,1,1,0,500,1700,2077,0,0,1700,1,0,0,leftarrow.jpg,leftarrow.jpg,rightarrow.jpg,leftarrow.jpg,leftarrow.jpg,67.5pct,61.5pct,67.5pct5.0.6.0,win,21217,20:51:25,10_1,1,ANT_R,66,nocue,66,1,NA,2,1,1,1,0,500,1700,2443,0,0,1700,1,0,0,leftarrow.jpg,leftarrow.jpg,rightarrow.jpg,leftarrow.jpg,leftarrow.jpg,67.5pct,61.5pct,50pct5.0.6.0,win,21217,20:51:25,10_1,1,ANT_R,67,invalidspatialcue,67,6,invalid,1,1,1,1,800,500,1700,3161,0,0,1700,1,0,0,rightarrow.jpg,rightarrow.jpg,rightarrow.jpg,rightarrow.jpg,rightarrow.jpg,67.5pct,61.5pct,32.5pct5.0.6.0,win,21217,20:51:25,10_1,1,ANT_R,68,validspatialcue2,68,4,valid,2,2,1,2,800,500,1700,2333,0,0,1700,1,0,0,leftarrow.jpg,leftarrow.jpg,rightarrow.jpg,leftarrow.jpg,leftarrow.jpg,32.5pct,26.5pct,32.5pct5.0.6.0,win,21217,20:51:25,10_1,1,ANT_R,69,validspatialcue2,69,4,valid,1,2,1,2,800,500,1700,2616,0,0,1700,1,0,0,rightarrow.jpg,rightarrow.jpg,rightarrow.jpg,rightarrow.jpg,rightarrow.jpg,32.5pct,26.5pct,32.5pct5.0.6.0,win,21217,20:51:25,10_1,1,ANT_R,70,validspatialcue1,70,3,valid,1,1,2,2,0,500,1700,2618,0,0,1700,1,0,0,leftarrow.jpg,leftarrow.jpg,leftarrow.jpg,leftarrow.jpg,leftarrow.jpg,67.5pct,61.5pct,67.5pct5.0.6.0,win,21217,20:51:25,10_1,1,ANT_R,71,nocue,71,1,NA,2,1,2,2,400,500,1700,2080,0,0,1700,1,0,0,rightarrow.jpg,rightarrow.jpg,leftarrow.jpg,rightarrow.jpg,rightarrow.jpg,67.5pct,61.5pct,50pct5.0.6.0,win,21217,20:51:25,10_1,1,ANT_R,72,validspatialcue1,72,3,valid,2,2,1,2,800,500,1700,2603,0,0,1700,1,0,0,leftarrow.jpg,leftarrow.jpg,rightarrow.jpg,leftarrow.jpg,leftarrow.jpg,32.5pct,26.5pct,32.5pct5.0.6.0,win,21217,20:51:25,10_1,2,ANT_R,73,validspatialcue3,73,5,valid,1,1,1,1,400,500,1700,3172,0,0,1700,1,0,0,rightarrow.jpg,rightarrow.jpg,rightarrow.jpg,rightarrow.jpg,rightarrow.jpg,67.5pct,61.5pct,67.5pct5.0.6.0,win,21217,20:51:25,10_1,2,ANT_R,74,invalidspatialcue,74,6,invalid,2,1,1,1,800,500,1700,3394,0,0,1700,1,0,0,leftarrow.jpg,leftarrow.jpg,rightarrow.jpg,leftarrow.jpg,leftarrow.jpg,67.5pct,61.5pct,32.5pct5.0.6.0,win,21217,20:51:25,10_1,2,ANT_R,75,validspatialcue3,75,5,valid,2,1,2,2,0,500,1700,2353,0,0,1700,1,0,0,rightarrow.jpg,rightarrow.jpg,leftarrow.jpg,rightarrow.jpg,rightarrow.jpg,67.5pct,61.5pct,67.5pct5.0.6.0,win,21217,20:51:25,10_1,2,ANT_R,76,validspatialcue3,76,5,valid,2,2,1,2,800,500,1700,2547,0,0,1700,1,0,0,leftarrow.jpg,leftarrow.jpg,rightarrow.jpg,leftarrow.jpg,leftarrow.jpg,32.5pct,26.5pct,32.5pct5.0.6.0,win,21217,20:51:25,10_1,2,ANT_R,77,validspatialcue3,77,5,valid,1,2,2,1,800,500,1700,2233,0,0,1700,1,0,0,leftarrow.jpg,leftarrow.jpg,leftarrow.jpg,leftarrow.jpg,leftarrow.jpg,32.5pct,26.5pct,32.5pct5.0.6.0,win,21217,20:51:25,10_1,2,ANT_R,78,nocue,78,1,NA,1,2,1,2,400,500,1700,2743,0,0,1700,1,0,0,rightarrow.jpg,rightarrow.jpg,rightarrow.jpg,rightarrow.jpg,rightarrow.jpg,32.5pct,26.5pct,50pct5.0.6.0,win,21217,20:51:25,10_1,2,ANT_R,79,nocue,79,1,NA,2,2,2,1,400,500,1700,3601,0,0,1700,1,0,0,rightarrow.jpg,rightarrow.jpg,leftarrow.jpg,rightarrow.jpg,rightarrow.jpg,32.5pct,26.5pct,50pct5.0.6.0,win,21217,20:51:25,10_1,2,ANT_R,80,validspatialcue3,80,5,valid,2,2,2,1,800,500,1700,2333,0,0,1700,1,0,0,rightarrow.jpg,rightarrow.jpg,leftarrow.jpg,rightarrow.jpg,rightarrow.jpg,32.5pct,26.5pct,32.5pct5.0.6.0,win,21217,20:51:25,10_1,2,ANT_R,81,validspatialcue1,81,3,valid,2,1,1,1,0,500,1700,3517,0,0,1700,1,0,0,leftarrow.jpg,leftarrow.jpg,rightarrow.jpg,leftarrow.jpg,leftarrow.jpg,67.5pct,61.5pct,67.5pct5.0.6.0,win,21217,20:51:25,10_1,2,ANT_R,82,invalidspatialcue,82,6,invalid,2,1,2,2,0,500,1700,2143,0,0,1700,1,0,0,rightarrow.jpg,rightarrow.jpg,leftarrow.jpg,rightarrow.jpg,rightarrow.jpg,67.5pct,61.5pct,32.5pct5.0.6.0,win,21217,20:51:25,10_1,2,ANT_R,83,nocue,83,1,NA,1,2,2,1,0,500,1700,3045,0,0,1700,1,0,0,leftarrow.jpg,leftarrow.jpg,leftarrow.jpg,leftarrow.jpg,leftarrow.jpg,32.5pct,26.5pct,50pct5.0.6.0,win,21217,20:51:25,10_1,2,ANT_R,84,validspatialcue2,84,4,valid,2,1,2,2,800,500,1700,2090,0,0,1700,1,0,0,rightarrow.jpg,rightarrow.jpg,leftarrow.jpg,rightarrow.jpg,rightarrow.jpg,67.5pct,61.5pct,67.5pct5.0.6.0,win,21217,20:51:25,10_1,2,ANT_R,85,validspatialcue1,85,3,valid,1,2,1,2,800,500,1700,2783,0,0,1700,1,0,0,rightarrow.jpg,rightarrow.jpg,rightarrow.jpg,rightarrow.jpg,rightarrow.jpg,32.5pct,26.5pct,32.5pct5.0.6.0,win,21217,20:51:25,10_1,2,ANT_R,86,validspatialcue2,86,4,valid,1,1,2,2,0,500,1700,2077,0,0,1700,1,0,0,leftarrow.jpg,leftarrow.jpg,leftarrow.jpg,leftarrow.jpg,leftarrow.jpg,67.5pct,61.5pct,67.5pct5.0.6.0,win,21217,20:51:25,10_1,2,ANT_R,87,doublecue,87,2,double,1,1,1,1,800,500,1700,2767,0,0,1700,1,0,0,rightarrow.jpg,rightarrow.jpg,rightarrow.jpg,rightarrow.jpg,rightarrow.jpg,67.5pct,61.5pct,67.5pct5.0.6.0,win,21217,20:51:25,10_1,2,ANT_R,88,invalidspatialcue,88,6,invalid,2,2,1,2,800,500,1700,2618,0,0,1700,1,0,0,leftarrow.jpg,leftarrow.jpg,rightarrow.jpg,leftarrow.jpg,leftarrow.jpg,32.5pct,26.5pct,67.5pct5.0.6.0,win,21217,20:51:25,10_1,2,ANT_R,89,validspatialcue2,89,4,valid,2,1,1,1,400,500,1700,2367,0,0,1700,1,0,0,leftarrow.jpg,leftarrow.jpg,rightarrow.jpg,leftarrow.jpg,leftarrow.jpg,67.5pct,61.5pct,67.5pct5.0.6.0,win,21217,20:51:25,10_1,2,ANT_R,90,validspatialcue3,90,5,valid,1,2,1,2,800,500,1700,3557,0,0,1700,1,0,0,rightarrow.jpg,rightarrow.jpg,rightarrow.jpg,rightarrow.jpg,rightarrow.jpg,32.5pct,26.5pct,32.5pct5.0.6.0,win,21217,20:51:25,10_1,2,ANT_R,91,invalidspatialcue,91,6,invalid,2,2,2,1,400,500,1700,3428,0,0,1700,1,0,0,rightarrow.jpg,rightarrow.jpg,leftarrow.jpg,rightarrow.jpg,rightarrow.jpg,32.5pct,26.5pct,67.5pct5.0.6.0,win,21217,20:51:25,10_1,2,ANT_R,92,validspatialcue1,92,3,valid,1,2,2,1,800,500,1700,2380,0,0,1700,1,0,0,leftarrow.jpg,leftarrow.jpg,leftarrow.jpg,leftarrow.jpg,leftarrow.jpg,32.5pct,26.5pct,32.5pct5.0.6.0,win,21217,20:51:25,10_1,2,ANT_R,93,doublecue,93,2,double,2,2,1,2,400,500,1700,2934,0,0,1700,1,0,0,leftarrow.jpg,leftarrow.jpg,rightarrow.jpg,leftarrow.jpg,leftarrow.jpg,32.5pct,26.5pct,67.5pct5.0.6.0,win,21217,20:51:25,10_1,2,ANT_R,94,validspatialcue2,94,4,valid,1,1,1,1,0,500,1700,2233,0,0,1700,1,0,0,rightarrow.jpg,rightarrow.jpg,rightarrow.jpg,rightarrow.jpg,rightarrow.jpg,67.5pct,61.5pct,67.5pct5.0.6.0,win,21217,20:51:25,10_1,2,ANT_R,95,nocue,95,1,NA,1,2,1,2,800,500,1700,2977,0,0,1700,1,0,0,rightarrow.jpg,rightarrow.jpg,rightarrow.jpg,rightarrow.jpg,rightarrow.jpg,32.5pct,26.5pct,50pct5.0.6.0,win,21217,20:51:25,10_1,2,ANT_R,96,invalidspatialcue,96,6,invalid,1,1,2,2,400,500,1700,2077,0,0,1700,1,0,0,leftarrow.jpg,leftarrow.jpg,leftarrow.jpg,leftarrow.jpg,leftarrow.jpg,67.5pct,61.5pct,32.5pct5.0.6.0,win,21217,20:51:25,10_1,2,ANT_R,97,invalidspatialcue,97,6,invalid,2,2,2,1,800,500,1700,2019,0,0,1700,1,0,0,rightarrow.jpg,rightarrow.jpg,leftarrow.jpg,rightarrow.jpg,rightarrow.jpg,32.5pct,26.5pct,67.5pct5.0.6.0,win,21217,20:51:25,10_1,2,ANT_R,98,doublecue,98,2,double,2,1,1,1,0,500,1700,3358,0,0,1700,1,0,0,leftarrow.jpg,leftarrow.jpg,rightarrow.jpg,leftarrow.jpg,leftarrow.jpg,67.5pct,61.5pct,67.5pct5.0.6.0,win,21217,20:51:25,10_1,2,ANT_R,99,validspatialcue1,99,3,valid,1,2,2,1,400,500,1700,2717,0,0,1700,1,0,0,leftarrow.jpg,leftarrow.jpg,leftarrow.jpg,leftarrow.jpg,leftarrow.jpg,32.5pct,26.5pct,32.5pct5.0.6.0,win,21217,20:51:25,10_1,2,ANT_R,100,validspatialcue1,100,3,valid,2,2,2,1,400,500,1700,3565,0,0,1700,1,0,0,rightarrow.jpg,rightarrow.jpg,leftarrow.jpg,rightarrow.jpg,rightarrow.jpg,32.5pct,26.5pct,32.5pct5.0.6.0,win,21217,20:51:25,10_1,2,ANT_R,101,doublecue,101,2,double,1,1,1,1,0,500,1700,2752,0,0,1700,1,0,0,rightarrow.jpg,rightarrow.jpg,rightarrow.jpg,rightarrow.jpg,rightarrow.jpg,67.5pct,61.5pct,67.5pct5.0.6.0,win,21217,20:51:25,10_1,2,ANT_R,102,doublecue,102,2,double,1,2,2,1,0,500,1700,2505,0,0,1700,1,0,0,leftarrow.jpg,leftarrow.jpg,leftarrow.jpg,leftarrow.jpg,leftarrow.jpg,32.5pct,26.5pct,67.5pct5.0.6.0,win,21217,20:51:25,10_1,2,ANT_R,103,nocue,103,1,NA,2,2,2,1,0,500,1700,2920,0,0,1700,1,0,0,rightarrow.jpg,rightarrow.jpg,leftarrow.jpg,rightarrow.jpg,rightarrow.jpg,32.5pct,26.5pct,50pct5.0.6.0,win,21217,20:51:25,10_1,2,ANT_R,104,doublecue,104,2,double,1,1,2,2,400,500,1700,2229,0,0,1700,1,0,0,leftarrow.jpg,leftarrow.jpg,leftarrow.jpg,leftarrow.jpg,leftarrow.jpg,67.5pct,61.5pct,67.5pct5.0.6.0,win,21217,20:51:25,10_1,2,ANT_R,105,validspatialcue3,105,5,valid,2,2,1,2,400,500,1700,2488,0,0,1700,1,0,0,leftarrow.jpg,leftarrow.jpg,rightarrow.jpg,leftarrow.jpg,leftarrow.jpg,32.5pct,26.5pct,32.5pct5.0.6.0,win,21217,20:51:25,10_1,2,ANT_R,106,doublecue,106,2,double,2,1,2,2,800,500,1700,2607,0,0,1700,1,0,0,rightarrow.jpg,rightarrow.jpg,leftarrow.jpg,rightarrow.jpg,rightarrow.jpg,67.5pct,61.5pct,67.5pct5.0.6.0,win,21217,20:51:25,10_1,2,ANT_R,107,nocue,107,1,NA,2,2,1,2,800,500,1700,2666,0,0,1700,1,0,0,leftarrow.jpg,leftarrow.jpg,rightarrow.jpg,leftarrow.jpg,leftarrow.jpg,32.5pct,26.5pct,50pct5.0.6.0,win,21217,20:51:25,10_1,2,ANT_R,108,nocue,108,1,NA,2,1,1,1,400,500,1700,2636,0,0,1700,1,0,0,leftarrow.jpg,leftarrow.jpg,rightarrow.jpg,leftarrow.jpg,leftarrow.jpg,67.5pct,61.5pct,50pct5.0.6.0,win,21217,20:51:25,10_1,2,ANT_R,109,doublecue,109,2,double,2,2,2,1,0,500,1700,3558,0,0,1700,1,0,0,rightarrow.jpg,rightarrow.jpg,leftarrow.jpg,rightarrow.jpg,rightarrow.jpg,32.5pct,26.5pct,67.5pct5.0.6.0,win,21217,20:51:25,10_1,2,ANT_R,110,invalidspatialcue,110,6,invalid,1,1,2,2,800,500,1700,3381,0,0,1700,1,0,0,leftarrow.jpg,leftarrow.jpg,leftarrow.jpg,leftarrow.jpg,leftarrow.jpg,67.5pct,61.5pct,32.5pct5.0.6.0,win,21217,20:51:25,10_1,2,ANT_R,111,validspatialcue3,111,5,valid,2,2,2,1,0,500,1700,2227,0,0,1700,1,0,0,rightarrow.jpg,rightarrow.jpg,leftarrow.jpg,rightarrow.jpg,rightarrow.jpg,32.5pct,26.5pct,32.5pct5.0.6.0,win,21217,20:51:25,10_1,2,ANT_R,112,validspatialcue2,112,4,valid,1,2,2,1,0,500,1700,3254,0,0,1700,1,0,0,leftarrow.jpg,leftarrow.jpg,leftarrow.jpg,leftarrow.jpg,leftarrow.jpg,32.5pct,26.5pct,32.5pct5.0.6.0,win,21217,20:51:25,10_1,2,ANT_R,113,validspatialcue2,113,4,valid,1,2,1,2,0,500,1700,3045,0,0,1700,1,0,0,rightarrow.jpg,rightarrow.jpg,rightarrow.jpg,rightarrow.jpg,rightarrow.jpg,32.5pct,26.5pct,32.5pct5.0.6.0,win,21217,20:51:25,10_1,2,ANT_R,114,invalidspatialcue,114,6,invalid,1,2,2,1,400,500,1700,3049,0,0,1700,1,0,0,leftarrow.jpg,leftarrow.jpg,leftarrow.jpg,leftarrow.jpg,leftarrow.jpg,32.5pct,26.5pct,67.5pct5.0.6.0,win,21217,20:51:25,10_1,2,ANT_R,115,doublecue,115,2,double,2,2,2,1,800,500,1700,3587,0,0,1700,1,0,0,rightarrow.jpg,rightarrow.jpg,leftarrow.jpg,rightarrow.jpg,rightarrow.jpg,32.5pct,26.5pct,67.5pct5.0.6.0,win,21217,20:51:25,10_1,2,ANT_R,116,validspatialcue2,116,4,valid,2,1,2,2,0,500,1700,2291,0,0,1700,1,0,0,rightarrow.jpg,rightarrow.jpg,leftarrow.jpg,rightarrow.jpg,rightarrow.jpg,67.5pct,61.5pct,67.5pct5.0.6.0,win,21217,20:51:25,10_1,2,ANT_R,117,invalidspatialcue,117,6,invalid,2,2,1,2,0,500,1700,2812,0,0,1700,1,0,0,leftarrow.jpg,leftarrow.jpg,rightarrow.jpg,leftarrow.jpg,leftarrow.jpg,32.5pct,26.5pct,67.5pct5.0.6.0,win,21217,20:51:25,10_1,2,ANT_R,118,validspatialcue1,118,3,valid,1,1,1,1,0,500,1700,3273,0,0,1700,1,0,0,rightarrow.jpg,rightarrow.jpg,rightarrow.jpg,rightarrow.jpg,rightarrow.jpg,67.5pct,61.5pct,67.5pct5.0.6.0,win,21217,20:51:25,10_1,2,ANT_R,119,invalidspatialcue,119,6,invalid,1,1,1,1,400,500,1700,3657,0,0,1700,1,0,0,rightarrow.jpg,rightarrow.jpg,rightarrow.jpg,rightarrow.jpg,rightarrow.jpg,67.5pct,61.5pct,32.5pct5.0.6.0,win,21217,20:51:25,10_1,2,ANT_R,120,validspatialcue2,120,4,valid,1,1,2,2,800,500,1700,2616,0,0,1700,1,0,0,leftarrow.jpg,leftarrow.jpg,leftarrow.jpg,leftarrow.jpg,leftarrow.jpg,67.5pct,61.5pct,67.5pct5.0.6.0,win,21217,20:51:25,10_1,2,ANT_R,121,doublecue,121,2,double,2,1,2,2,400,500,1700,2009,0,0,1700,1,0,0,rightarrow.jpg,rightarrow.jpg,leftarrow.jpg,rightarrow.jpg,rightarrow.jpg,67.5pct,61.5pct,67.5pct5.0.6.0,win,21217,20:51:25,10_1,2,ANT_R,122,doublecue,122,2,double,1,1,2,2,0,500,1700,2080,0,0,1700,1,0,0,leftarrow.jpg,leftarrow.jpg,leftarrow.jpg,leftarrow.jpg,leftarrow.jpg,67.5pct,61.5pct,67.5pct5.0.6.0,win,21217,20:51:25,10_1,2,ANT_R,123,validspatialcue1,123,3,valid,2,1,2,2,400,500,1700,3466,0,0,1700,1,0,0,rightarrow.jpg,rightarrow.jpg,leftarrow.jpg,rightarrow.jpg,rightarrow.jpg,67.5pct,61.5pct,67.5pct5.0.6.0,win,21217,20:51:25,10_1,2,ANT_R,124,nocue,124,1,NA,1,1,1,1,400,500,1700,3003,0,0,1700,1,0,0,rightarrow.jpg,rightarrow.jpg,rightarrow.jpg,rightarrow.jpg,rightarrow.jpg,67.5pct,61.5pct,50pct5.0.6.0,win,21217,20:51:25,10_1,2,ANT_R,125,invalidspatialcue,125,6,invalid,1,1,2,2,0,500,1700,2708,0,0,1700,1,0,0,leftarrow.jpg,leftarrow.jpg,leftarrow.jpg,leftarrow.jpg,leftarrow.jpg,67.5pct,61.5pct,32.5pct5.0.6.0,win,21217,20:51:25,10_1,2,ANT_R,126,validspatialcue3,126,5,valid,2,1,1,1,800,500,1700,3088,0,0,1700,1,0,0,leftarrow.jpg,leftarrow.jpg,rightarrow.jpg,leftarrow.jpg,leftarrow.jpg,67.5pct,61.5pct,67.5pct5.0.6.0,win,21217,20:51:25,10_1,2,ANT_R,127,doublecue,127,2,double,2,1,1,1,800,500,1700,2507,0,0,1700,1,0,0,leftarrow.jpg,leftarrow.jpg,rightarrow.jpg,leftarrow.jpg,leftarrow.jpg,67.5pct,61.5pct,67.5pct5.0.6.0,win,21217,20:51:25,10_1,2,ANT_R,128,validspatialcue3,128,5,valid,1,2,1,2,400,500,1700,2957,0,0,1700,1,0,0,rightarrow.jpg,rightarrow.jpg,rightarrow.jpg,rightarrow.jpg,rightarrow.jpg,32.5pct,26.5pct,32.5pct5.0.6.0,win,21217,20:51:25,10_1,2,ANT_R,129,validspatialcue2,129,4,valid,1,2,2,1,800,500,1700,2443,0,0,1700,1,0,0,leftarrow.jpg,leftarrow.jpg,leftarrow.jpg,leftarrow.jpg,leftarrow.jpg,32.5pct,26.5pct,32.5pct5.0.6.0,win,21217,20:51:25,10_1,2,ANT_R,130,validspatialcue1,130,3,valid,2,1,1,1,800,500,1700,2049,0,0,1700,1,0,0,leftarrow.jpg,leftarrow.jpg,rightarrow.jpg,leftarrow.jpg,leftarrow.jpg,67.5pct,61.5pct,67.5pct5.0.6.0,win,21217,20:51:25,10_1,2,ANT_R,131,validspatialcue3,131,5,valid,1,1,1,1,0,500,1700,2081,0,0,1700,1,0,0,rightarrow.jpg,rightarrow.jpg,rightarrow.jpg,rightarrow.jpg,rightarrow.jpg,67.5pct,61.5pct,67.5pct5.0.6.0,win,21217,20:51:25,10_1,2,ANT_R,132,validspatialcue3,132,5,valid,2,2,2,1,400,500,1700,3694,0,0,1700,1,0,0,rightarrow.jpg,rightarrow.jpg,leftarrow.jpg,rightarrow.jpg,rightarrow.jpg,32.5pct,26.5pct,32.5pct5.0.6.0,win,21217,20:51:25,10_1,2,ANT_R,133,invalidspatialcue,133,6,invalid,1,2,1,2,400,500,1700,3152,0,0,1700,1,0,0,rightarrow.jpg,rightarrow.jpg,rightarrow.jpg,rightarrow.jpg,rightarrow.jpg,32.5pct,26.5pct,67.5pct5.0.6.0,win,21217,20:51:25,10_1,2,ANT_R,134,invalidspatialcue,134,6,invalid,1,2,1,2,0,500,1700,3182,0,0,1700,1,0,0,rightarrow.jpg,rightarrow.jpg,rightarrow.jpg,rightarrow.jpg,rightarrow.jpg,32.5pct,26.5pct,67.5pct5.0.6.0,win,21217,20:51:25,10_1,2,ANT_R,135,nocue,135,1,NA,2,2,1,2,0,500,1700,2625,0,0,1700,1,0,0,leftarrow.jpg,leftarrow.jpg,rightarrow.jpg,leftarrow.jpg,leftarrow.jpg,32.5pct,26.5pct,50pct5.0.6.0,win,21217,20:51:25,10_1,2,ANT_R,136,validspatialcue1,136,3,valid,1,1,1,1,800,500,1700,2817,0,0,1700,1,0,0,rightarrow.jpg,rightarrow.jpg,rightarrow.jpg,rightarrow.jpg,rightarrow.jpg,67.5pct,61.5pct,67.5pct5.0.6.0,win,21217,20:51:25,10_1,2,ANT_R,137,validspatialcue2,137,4,valid,2,2,1,2,400,500,1700,2101,0,0,1700,1,0,0,leftarrow.jpg,leftarrow.jpg,rightarrow.jpg,leftarrow.jpg,leftarrow.jpg,32.5pct,26.5pct,32.5pct5.0.6.0,win,21217,20:51:25,10_1,2,ANT_R,138,nocue,138,1,NA,1,1,2,2,400,500,1700,3692,0,0,1700,1,0,0,leftarrow.jpg,leftarrow.jpg,leftarrow.jpg,leftarrow.jpg,leftarrow.jpg,67.5pct,61.5pct,50pct5.0.6.0,win,21217,20:51:25,10_1,2,ANT_R,139,validspatialcue3,139,5,valid,1,2,2,1,400,500,1700,2603,0,0,1700,1,0,0,leftarrow.jpg,leftarrow.jpg,leftarrow.jpg,leftarrow.jpg,leftarrow.jpg,32.5pct,26.5pct,32.5pct5.0.6.0,win,21217,20:51:25,10_1,2,ANT_R,140,nocue,140,1,NA,2,1,1,1,800,500,1700,3552,0,0,1700,1,0,0,leftarrow.jpg,leftarrow.jpg,rightarrow.jpg,leftarrow.jpg,leftarrow.jpg,67.5pct,61.5pct,50pct5.0.6.0,win,21217,20:51:25,10_1,2,ANT_R,141,validspatialcue2,141,4,valid,2,1,1,1,0,500,1700,3266,0,0,1700,1,0,0,leftarrow.jpg,leftarrow.jpg,rightarrow.jpg,leftarrow.jpg,leftarrow.jpg,67.5pct,61.5pct,67.5pct5.0.6.0,win,21217,20:51:25,10_1,2,ANT_R,142,validspatialcue2,142,4,valid,2,1,1,1,800,500,1700,3161,0,0,1700,1,0,0,leftarrow.jpg,leftarrow.jpg,rightarrow.jpg,leftarrow.jpg,leftarrow.jpg,67.5pct,61.5pct,67.5pct5.0.6.0,win,21217,20:51:25,10_1,2,ANT_R,143,validspatialcue3,143,5,valid,1,2,2,1,0,500,1700,2867,0,0,1700,1,0,0,leftarrow.jpg,leftarrow.jpg,leftarrow.jpg,leftarrow.jpg,leftarrow.jpg,32.5pct,26.5pct,32.5pct5.0.6.0,win,21217,20:51:25,10_1,2,ANT_R,144,validspatialcue1,144,3,valid,1,1,1,1,400,500,1700,3089,0,0,1700,1,0,0,rightarrow.jpg,rightarrow.jpg,rightarrow.jpg,rightarrow.jpg,rightarrow.jpg,67.5pct,61.5pct,67.5pct5.0.6.0,win,21217,20:51:25,10_1,3,ANT_R,145,validspatialcue1,145,3,valid,1,2,2,1,0,500,1700,2625,0,0,1700,1,0,0,leftarrow.jpg,leftarrow.jpg,leftarrow.jpg,leftarrow.jpg,leftarrow.jpg,32.5pct,26.5pct,32.5pct5.0.6.0,win,21217,20:51:25,10_1,3,ANT_R,146,invalidspatialcue,146,6,invalid,2,2,2,1,0,500,1700,2505,0,0,1700,1,0,0,rightarrow.jpg,rightarrow.jpg,leftarrow.jpg,rightarrow.jpg,rightarrow.jpg,32.5pct,26.5pct,67.5pct5.0.6.0,win,21217,20:51:25,10_1,3,ANT_R,147,validspatialcue1,147,3,valid,2,2,2,1,800,500,1700,2101,0,0,1700,1,0,0,rightarrow.jpg,rightarrow.jpg,leftarrow.jpg,rightarrow.jpg,rightarrow.jpg,32.5pct,26.5pct,32.5pct5.0.6.0,win,21217,20:51:25,10_1,3,ANT_R,148,validspatialcue3,148,5,valid,2,1,1,1,400,500,1700,3587,0,0,1700,1,0,0,leftarrow.jpg,leftarrow.jpg,rightarrow.jpg,leftarrow.jpg,leftarrow.jpg,67.5pct,61.5pct,67.5pct5.0.6.0,win,21217,20:51:25,10_1,3,ANT_R,149,doublecue,149,2,double,2,1,1,1,400,500,1700,2636,0,0,1700,1,0,0,leftarrow.jpg,leftarrow.jpg,rightarrow.jpg,leftarrow.jpg,leftarrow.jpg,67.5pct,61.5pct,67.5pct5.0.6.0,win,21217,20:51:25,10_1,3,ANT_R,150,validspatialcue2,150,4,valid,2,1,2,2,400,500,1700,3694,0,0,1700,1,0,0,rightarrow.jpg,rightarrow.jpg,leftarrow.jpg,rightarrow.jpg,rightarrow.jpg,67.5pct,61.5pct,67.5pct5.0.6.0,win,21217,20:51:25,10_1,3,ANT_R,151,doublecue,151,2,double,1,2,1,2,400,500,1700,3466,0,0,1700,1,0,0,rightarrow.jpg,rightarrow.jpg,rightarrow.jpg,rightarrow.jpg,rightarrow.jpg,32.5pct,26.5pct,67.5pct5.0.6.0,win,21217,20:51:25,10_1,3,ANT_R,152,validspatialcue3,152,5,valid,1,2,1,2,0,500,1700,3045,0,0,1700,1,0,0,rightarrow.jpg,rightarrow.jpg,rightarrow.jpg,rightarrow.jpg,rightarrow.jpg,32.5pct,26.5pct,32.5pct5.0.6.0,win,21217,20:51:25,10_1,3,ANT_R,153,validspatialcue3,153,5,valid,1,1,2,2,400,500,1700,2507,0,0,1700,1,0,0,leftarrow.jpg,leftarrow.jpg,leftarrow.jpg,leftarrow.jpg,leftarrow.jpg,67.5pct,61.5pct,67.5pct5.0.6.0,win,21217,20:51:25,10_1,3,ANT_R,154,validspatialcue2,154,4,valid,2,2,2,1,800,500,1700,2380,0,0,1700,1,0,0,rightarrow.jpg,rightarrow.jpg,leftarrow.jpg,rightarrow.jpg,rightarrow.jpg,32.5pct,26.5pct,32.5pct5.0.6.0,win,21217,20:51:25,10_1,3,ANT_R,155,invalidspatialcue,155,6,invalid,1,2,2,1,800,500,1700,2817,0,0,1700,1,0,0,leftarrow.jpg,leftarrow.jpg,leftarrow.jpg,leftarrow.jpg,leftarrow.jpg,32.5pct,26.5pct,67.5pct5.0.6.0,win,21217,20:51:25,10_1,3,ANT_R,156,validspatialcue2,156,4,valid,1,1,2,2,400,500,1700,3266,0,0,1700,1,0,0,leftarrow.jpg,leftarrow.jpg,leftarrow.jpg,leftarrow.jpg,leftarrow.jpg,67.5pct,61.5pct,67.5pct5.0.6.0,win,21217,20:51:25,10_1,3,ANT_R,157,validspatialcue1,157,3,valid,1,1,2,2,800,500,1700,2867,0,0,1700,1,0,0,leftarrow.jpg,leftarrow.jpg,leftarrow.jpg,leftarrow.jpg,leftarrow.jpg,67.5pct,61.5pct,67.5pct5.0.6.0,win,21217,20:51:25,10_1,3,ANT_R,158,validspatialcue1,158,3,valid,2,2,1,2,0,500,1700,2977,0,0,1700,1,0,0,leftarrow.jpg,leftarrow.jpg,rightarrow.jpg,leftarrow.jpg,leftarrow.jpg,32.5pct,26.5pct,32.5pct5.0.6.0,win,21217,20:51:25,10_1,3,ANT_R,159,validspatialcue2,159,4,valid,2,2,2,1,0,500,1700,2081,0,0,1700,1,0,0,rightarrow.jpg,rightarrow.jpg,leftarrow.jpg,rightarrow.jpg,rightarrow.jpg,32.5pct,26.5pct,32.5pct5.0.6.0,win,21217,20:51:25,10_1,3,ANT_R,160,validspatialcue2,160,4,valid,1,2,2,1,400,500,1700,2957,0,0,1700,1,0,0,leftarrow.jpg,leftarrow.jpg,leftarrow.jpg,leftarrow.jpg,leftarrow.jpg,32.5pct,26.5pct,32.5pct5.0.6.0,win,21217,20:51:25,10_1,3,ANT_R,161,nocue,161,1,NA,1,2,2,1,400,500,1700,2812,0,0,1700,1,0,0,leftarrow.jpg,leftarrow.jpg,leftarrow.jpg,leftarrow.jpg,leftarrow.jpg,32.5pct,26.5pct,50pct5.0.6.0,win,21217,20:51:25,10_1,3,ANT_R,162,validspatialcue1,162,3,valid,2,2,2,1,0,500,1700,3172,0,0,1700,1,0,0,rightarrow.jpg,rightarrow.jpg,leftarrow.jpg,rightarrow.jpg,rightarrow.jpg,32.5pct,26.5pct,32.5pct5.0.6.0,win,21217,20:51:25,10_1,3,ANT_R,163,nocue,163,1,NA,1,1,1,1,0,500,1700,3358,0,0,1700,1,0,0,rightarrow.jpg,rightarrow.jpg,rightarrow.jpg,rightarrow.jpg,rightarrow.jpg,67.5pct,61.5pct,50pct5.0.6.0,win,21217,20:51:25,10_1,3,ANT_R,164,validspatialcue3,164,5,valid,2,2,1,2,0,500,1700,3428,0,0,1700,1,0,0,leftarrow.jpg,leftarrow.jpg,rightarrow.jpg,leftarrow.jpg,leftarrow.jpg,32.5pct,26.5pct,32.5pct5.0.6.0,win,21217,20:51:25,10_1,3,ANT_R,165,invalidspatialcue,165,6,invalid,1,2,1,2,800,500,1700,2009,0,0,1700,1,0,0,rightarrow.jpg,rightarrow.jpg,rightarrow.jpg,rightarrow.jpg,rightarrow.jpg,32.5pct,26.5pct,67.5pct5.0.6.0,win,21217,20:51:25,10_1,3,ANT_R,166,nocue,166,1,NA,2,1,2,2,0,500,1700,3394,0,0,1700,1,0,0,rightarrow.jpg,rightarrow.jpg,leftarrow.jpg,rightarrow.jpg,rightarrow.jpg,67.5pct,61.5pct,50pct5.0.6.0,win,21217,20:51:25,10_1,3,ANT_R,167,invalidspatialcue,167,6,invalid,2,1,1,1,400,500,1700,2752,0,0,1700,1,0,0,leftarrow.jpg,leftarrow.jpg,rightarrow.jpg,leftarrow.jpg,leftarrow.jpg,67.5pct,61.5pct,32.5pct5.0.6.0,win,21217,20:51:25,10_1,3,ANT_R,168,doublecue,168,2,double,2,2,1,2,0,500,1700,2920,0,0,1700,1,0,0,leftarrow.jpg,leftarrow.jpg,rightarrow.jpg,leftarrow.jpg,leftarrow.jpg,32.5pct,26.5pct,67.5pct5.0.6.0,win,21217,20:51:25,10_1,3,ANT_R,169,nocue,169,1,NA,2,2,2,1,800,500,1700,2708,0,0,1700,1,0,0,rightarrow.jpg,rightarrow.jpg,leftarrow.jpg,rightarrow.jpg,rightarrow.jpg,32.5pct,26.5pct,50pct5.0.6.0,win,21217,20:51:25,10_1,3,ANT_R,170,validspatialcue2,170,4,valid,1,1,1,1,400,500,1700,2666,0,0,1700,1,0,0,rightarrow.jpg,rightarrow.jpg,rightarrow.jpg,rightarrow.jpg,rightarrow.jpg,67.5pct,61.5pct,67.5pct5.0.6.0,win,21217,20:51:25,10_1,3,ANT_R,171,validspatialcue3,171,5,valid,1,1,1,1,800,500,1700,2767,0,0,1700,1,0,0,rightarrow.jpg,rightarrow.jpg,rightarrow.jpg,rightarrow.jpg,rightarrow.jpg,67.5pct,61.5pct,67.5pct5.0.6.0,win,21217,20:51:25,10_1,3,ANT_R,172,nocue,172,1,NA,1,1,2,2,800,500,1700,3558,0,0,1700,1,0,0,leftarrow.jpg,leftarrow.jpg,leftarrow.jpg,leftarrow.jpg,leftarrow.jpg,67.5pct,61.5pct,50pct5.0.6.0,win,21217,20:51:25,10_1,3,ANT_R,173,doublecue,173,2,double,1,2,2,1,800,500,1700,2547,0,0,1700,1,0,0,leftarrow.jpg,leftarrow.jpg,leftarrow.jpg,leftarrow.jpg,leftarrow.jpg,32.5pct,26.5pct,67.5pct5.0.6.0,win,21217,20:51:25,10_1,3,ANT_R,174,doublecue,174,2,double,2,1,2,2,0,500,1700,3003,0,0,1700,1,0,0,rightarrow.jpg,rightarrow.jpg,leftarrow.jpg,rightarrow.jpg,rightarrow.jpg,67.5pct,61.5pct,67.5pct5.0.6.0,win,21217,20:51:25,10_1,3,ANT_R,175,invalidspatialcue,175,6,invalid,1,2,2,1,0,500,1700,2229,0,0,1700,1,0,0,leftarrow.jpg,leftarrow.jpg,leftarrow.jpg,leftarrow.jpg,leftarrow.jpg,32.5pct,26.5pct,67.5pct5.0.6.0,win,21217,20:51:25,10_1,3,ANT_R,176,invalidspatialcue,176,6,invalid,1,1,1,1,0,500,1700,2353,0,0,1700,1,0,0,rightarrow.jpg,rightarrow.jpg,rightarrow.jpg,rightarrow.jpg,rightarrow.jpg,67.5pct,61.5pct,32.5pct5.0.6.0,win,21217,20:51:25,10_1,3,ANT_R,177,validspatialcue3,177,5,valid,1,1,2,2,0,500,1700,3089,0,0,1700,1,0,0,leftarrow.jpg,leftarrow.jpg,leftarrow.jpg,leftarrow.jpg,leftarrow.jpg,67.5pct,61.5pct,67.5pct5.0.6.0,win,21217,20:51:25,10_1,3,ANT_R,178,validspatialcue1,178,3,valid,1,2,1,2,0,500,1700,2077,0,0,1700,1,0,0,rightarrow.jpg,rightarrow.jpg,rightarrow.jpg,rightarrow.jpg,rightarrow.jpg,32.5pct,26.5pct,32.5pct5.0.6.0,win,21217,20:51:25,10_1,3,ANT_R,179,doublecue,179,2,double,1,1,1,1,400,500,1700,3601,0,0,1700,1,0,0,rightarrow.jpg,rightarrow.jpg,rightarrow.jpg,rightarrow.jpg,rightarrow.jpg,67.5pct,61.5pct,67.5pct5.0.6.0,win,21217,20:51:25,10_1,3,ANT_R,180,validspatialcue1,180,3,valid,2,1,2,2,800,500,1700,3273,0,0,1700,1,0,0,rightarrow.jpg,rightarrow.jpg,leftarrow.jpg,rightarrow.jpg,rightarrow.jpg,67.5pct,61.5pct,67.5pct5.0.6.0,win,21217,20:51:25,10_1,3,ANT_R,181,validspatialcue3,181,5,valid,2,1,2,2,800,500,1700,2291,0,0,1700,1,0,0,rightarrow.jpg,rightarrow.jpg,leftarrow.jpg,rightarrow.jpg,rightarrow.jpg,67.5pct,61.5pct,67.5pct5.0.6.0,win,21217,20:51:25,10_1,3,ANT_R,182,validspatialcue1,182,3,valid,2,1,2,2,0,500,1700,2019,0,0,1700,1,0,0,rightarrow.jpg,rightarrow.jpg,leftarrow.jpg,rightarrow.jpg,rightarrow.jpg,67.5pct,61.5pct,67.5pct5.0.6.0,win,21217,20:51:25,10_1,3,ANT_R,183,validspatialcue2,183,4,valid,2,2,2,1,400,500,1700,2743,0,0,1700,1,0,0,rightarrow.jpg,rightarrow.jpg,leftarrow.jpg,rightarrow.jpg,rightarrow.jpg,32.5pct,26.5pct,32.5pct5.0.6.0,win,21217,20:51:25,10_1,3,ANT_R,184,invalidspatialcue,184,6,invalid,2,1,2,2,800,500,1700,2934,0,0,1700,1,0,0,rightarrow.jpg,rightarrow.jpg,leftarrow.jpg,rightarrow.jpg,rightarrow.jpg,67.5pct,61.5pct,32.5pct5.0.6.0,win,21217,20:51:25,10_1,3,ANT_R,185,invalidspatialcue,185,6,invalid,2,1,1,1,0,500,1700,3254,0,0,1700,1,0,0,leftarrow.jpg,leftarrow.jpg,rightarrow.jpg,leftarrow.jpg,leftarrow.jpg,67.5pct,61.5pct,32.5pct5.0.6.0,win,21217,20:51:25,10_1,3,ANT_R,186,validspatialcue1,186,3,valid,1,2,1,2,400,500,1700,2090,0,0,1700,1,0,0,rightarrow.jpg,rightarrow.jpg,rightarrow.jpg,rightarrow.jpg,rightarrow.jpg,32.5pct,26.5pct,32.5pct5.0.6.0,win,21217,20:51:25,10_1,3,ANT_R,187,validspatialcue1,187,3,valid,1,1,2,2,400,500,1700,2049,0,0,1700,1,0,0,leftarrow.jpg,leftarrow.jpg,leftarrow.jpg,leftarrow.jpg,leftarrow.jpg,67.5pct,61.5pct,67.5pct5.0.6.0,win,21217,20:51:25,10_1,3,ANT_R,188,nocue,188,1,NA,1,2,1,2,0,500,1700,3049,0,0,1700,1,0,0,rightarrow.jpg,rightarrow.jpg,rightarrow.jpg,rightarrow.jpg,rightarrow.jpg,32.5pct,26.5pct,50pct5.0.6.0,win,21217,20:51:25,10_1,3,ANT_R,189,nocue,189,1,NA,2,2,1,2,400,500,1700,3088,0,0,1700,1,0,0,leftarrow.jpg,leftarrow.jpg,rightarrow.jpg,leftarrow.jpg,leftarrow.jpg,32.5pct,26.5pct,50pct5.0.6.0,win,21217,20:51:25,10_1,3,ANT_R,190,nocue,190,1,NA,1,1,2,2,0,500,1700,2233,0,0,1700,1,0,0,leftarrow.jpg,leftarrow.jpg,leftarrow.jpg,leftarrow.jpg,leftarrow.jpg,67.5pct,61.5pct,50pct5.0.6.0,win,21217,20:51:25,10_1,3,ANT_R,191,validspatialcue2,191,4,valid,1,1,1,1,800,500,1700,3045,0,0,1700,1,0,0,rightarrow.jpg,rightarrow.jpg,rightarrow.jpg,rightarrow.jpg,rightarrow.jpg,67.5pct,61.5pct,67.5pct5.0.6.0,win,21217,20:51:25,10_1,3,ANT_R,192,nocue,192,1,NA,1,1,1,1,800,500,1700,2233,0,0,1700,1,0,0,rightarrow.jpg,rightarrow.jpg,rightarrow.jpg,rightarrow.jpg,rightarrow.jpg,67.5pct,61.5pct,50pct5.0.6.0,win,21217,20:51:25,10_1,3,ANT_R,193,doublecue,193,2,double,1,1,2,2,800,500,1700,3552,0,0,1700,1,0,0,leftarrow.jpg,leftarrow.jpg,leftarrow.jpg,leftarrow.jpg,leftarrow.jpg,67.5pct,61.5pct,67.5pct5.0.6.0,win,21217,20:51:25,10_1,3,ANT_R,194,nocue,194,1,NA,2,1,2,2,800,500,1700,2367,0,0,1700,1,0,0,rightarrow.jpg,rightarrow.jpg,leftarrow.jpg,rightarrow.jpg,rightarrow.jpg,67.5pct,61.5pct,50pct5.0.6.0,win,21217,20:51:25,10_1,3,ANT_R,195,validspatialcue1,195,3,valid,2,1,1,1,400,500,1700,3657,0,0,1700,1,0,0,leftarrow.jpg,leftarrow.jpg,rightarrow.jpg,leftarrow.jpg,leftarrow.jpg,67.5pct,61.5pct,67.5pct5.0.6.0,win,21217,20:51:25,10_1,3,ANT_R,196,doublecue,196,2,double,1,2,2,1,400,500,1700,2607,0,0,1700,1,0,0,leftarrow.jpg,leftarrow.jpg,leftarrow.jpg,leftarrow.jpg,leftarrow.jpg,32.5pct,26.5pct,67.5pct5.0.6.0,win,21217,20:51:25,10_1,3,ANT_R,197,invalidspatialcue,197,6,invalid,2,1,2,2,400,500,1700,3152,0,0,1700,1,0,0,rightarrow.jpg,rightarrow.jpg,leftarrow.jpg,rightarrow.jpg,rightarrow.jpg,67.5pct,61.5pct,32.5pct5.0.6.0,win,21217,20:51:25,10_1,3,ANT_R,198,nocue,198,1,NA,1,2,2,1,800,500,1700,3381,0,0,1700,1,0,0,leftarrow.jpg,leftarrow.jpg,leftarrow.jpg,leftarrow.jpg,leftarrow.jpg,32.5pct,26.5pct,50pct5.0.6.0,win,21217,20:51:25,10_1,3,ANT_R,199,validspatialcue3,199,5,valid,1,1,2,2,800,500,1700,3565,0,0,1700,1,0,0,leftarrow.jpg,leftarrow.jpg,leftarrow.jpg,leftarrow.jpg,leftarrow.jpg,67.5pct,61.5pct,67.5pct5.0.6.0,win,21217,20:51:25,10_1,3,ANT_R,200,validspatialcue2,200,4,valid,2,2,1,2,0,500,1700,2783,0,0,1700,1,0,0,leftarrow.jpg,leftarrow.jpg,rightarrow.jpg,leftarrow.jpg,leftarrow.jpg,32.5pct,26.5pct,32.5pct5.0.6.0,win,21217,20:51:25,10_1,3,ANT_R,201,doublecue,201,2,double,1,2,1,2,800,500,1700,3182,0,0,1700,1,0,0,rightarrow.jpg,rightarrow.jpg,rightarrow.jpg,rightarrow.jpg,rightarrow.jpg,32.5pct,26.5pct,67.5pct5.0.6.0,win,21217,20:51:25,10_1,3,ANT_R,202,validspatialcue2,202,4,valid,1,2,1,2,400,500,1700,3517,0,0,1700,1,0,0,rightarrow.jpg,rightarrow.jpg,rightarrow.jpg,rightarrow.jpg,rightarrow.jpg,32.5pct,26.5pct,32.5pct5.0.6.0,win,21217,20:51:25,10_1,3,ANT_R,203,validspatialcue3,203,5,valid,2,1,2,2,400,500,1700,3557,0,0,1700,1,0,0,rightarrow.jpg,rightarrow.jpg,leftarrow.jpg,rightarrow.jpg,rightarrow.jpg,67.5pct,61.5pct,67.5pct5.0.6.0,win,21217,20:51:25,10_1,3,ANT_R,204,doublecue,204,2,double,1,2,1,2,0,500,1700,3692,0,0,1700,1,0,0,rightarrow.jpg,rightarrow.jpg,rightarrow.jpg,rightarrow.jpg,rightarrow.jpg,32.5pct,26.5pct,67.5pct5.0.6.0,win,21217,20:51:25,10_1,3,ANT_R,205,validspatialcue1,205,3,valid,2,2,1,2,400,500,1700,2143,0,0,1700,1,0,0,leftarrow.jpg,leftarrow.jpg,rightarrow.jpg,leftarrow.jpg,leftarrow.jpg,32.5pct,26.5pct,32.5pct5.0.6.0,win,21217,20:51:25,10_1,3,ANT_R,206,invalidspatialcue,206,6,invalid,2,2,1,2,400,500,1700,2488,0,0,1700,1,0,0,leftarrow.jpg,leftarrow.jpg,rightarrow.jpg,leftarrow.jpg,leftarrow.jpg,32.5pct,26.5pct,67.5pct5.0.6.0,win,21217,20:51:25,10_1,3,ANT_R,207,doublecue,207,2,double,2,2,1,2,800,500,1700,2227,0,0,1700,1,0,0,leftarrow.jpg,leftarrow.jpg,rightarrow.jpg,leftarrow.jpg,leftarrow.jpg,32.5pct,26.5pct,67.5pct5.0.6.0,win,21217,20:51:25,10_1,3,ANT_R,208,doublecue,208,2,double,2,2,2,1,400,500,1700,2717,0,0,1700,1,0,0,rightarrow.jpg,rightarrow.jpg,leftarrow.jpg,rightarrow.jpg,rightarrow.jpg,32.5pct,26.5pct,67.5pct5.0.6.0,win,21217,20:51:25,10_1,3,ANT_R,209,validspatialcue3,209,5,valid,2,1,1,1,0,500,1700,2077,0,0,1700,1,0,0,leftarrow.jpg,leftarrow.jpg,rightarrow.jpg,leftarrow.jpg,leftarrow.jpg,67.5pct,61.5pct,67.5pct5.0.6.0,win,21217,20:51:25,10_1,3,ANT_R,210,nocue,210,1,NA,2,1,1,1,0,500,1700,2443,0,0,1700,1,0,0,leftarrow.jpg,leftarrow.jpg,rightarrow.jpg,leftarrow.jpg,leftarrow.jpg,67.5pct,61.5pct,50pct5.0.6.0,win,21217,20:51:25,10_1,3,ANT_R,211,invalidspatialcue,211,6,invalid,1,1,1,1,800,500,1700,3161,0,0,1700,1,0,0,rightarrow.jpg,rightarrow.jpg,rightarrow.jpg,rightarrow.jpg,rightarrow.jpg,67.5pct,61.5pct,32.5pct5.0.6.0,win,21217,20:51:25,10_1,3,ANT_R,212,validspatialcue2,212,4,valid,2,2,1,2,800,500,1700,2333,0,0,1700,1,0,0,leftarrow.jpg,leftarrow.jpg,rightarrow.jpg,leftarrow.jpg,leftarrow.jpg,32.5pct,26.5pct,32.5pct5.0.6.0,win,21217,20:51:25,10_1,3,ANT_R,213,validspatialcue2,213,4,valid,1,2,1,2,800,500,1700,2616,0,0,1700,1,0,0,rightarrow.jpg,rightarrow.jpg,rightarrow.jpg,rightarrow.jpg,rightarrow.jpg,32.5pct,26.5pct,32.5pct5.0.6.0,win,21217,20:51:25,10_1,3,ANT_R,214,validspatialcue1,214,3,valid,1,1,2,2,0,500,1700,2618,0,0,1700,1,0,0,leftarrow.jpg,leftarrow.jpg,leftarrow.jpg,leftarrow.jpg,leftarrow.jpg,67.5pct,61.5pct,67.5pct5.0.6.0,win,21217,20:51:25,10_1,3,ANT_R,215,nocue,215,1,NA,2,1,2,2,400,500,1700,2080,0,0,1700,1,0,0,rightarrow.jpg,rightarrow.jpg,leftarrow.jpg,rightarrow.jpg,rightarrow.jpg,67.5pct,61.5pct,50pct5.0.6.0,win,21217,20:51:25,10_1,3,ANT_R,216,validspatialcue1,216,3,valid,2,2,1,2,800,500,1700,2603,0,0,1700,1,0,0,leftarrow.jpg,leftarrow.jpg,rightarrow.jpg,leftarrow.jpg,leftarrow.jpg,32.5pct,26.5pct,32.5pct5.0.6.0,win,21217,20:51:25,10_1,4,ANT_R,217,validspatialcue3,0,5,valid,,,,,,500,1700,,0,0,1700,1,0,0,rightarrow.jpg,rightarrow.jpg,leftarrow.jpg,rightarrow.jpg,rightarrow.jpg,67.5pct,61.5pct,32.5pct5.0.6.0,win,21217,20:51:25,10_1,4,ANT_R,218,validspatialcue1,1,3,valid,1,2,2,1,0,500,1700,2625,0,0,1700,1,0,0,leftarrow.jpg,leftarrow.jpg,leftarrow.jpg,leftarrow.jpg,leftarrow.jpg,32.5pct,26.5pct,32.5pct5.0.6.0,win,21217,20:51:25,10_1,4,ANT_R,219,invalidspatialcue,2,6,invalid,2,2,2,1,0,500,1700,2505,0,0,1700,1,0,0,rightarrow.jpg,rightarrow.jpg,leftarrow.jpg,rightarrow.jpg,rightarrow.jpg,32.5pct,26.5pct,67.5pct5.0.6.0,win,21217,20:51:25,10_1,4,ANT_R,220,validspatialcue1,3,3,valid,2,2,2,1,800,500,1700,2101,0,0,1700,1,0,0,rightarrow.jpg,rightarrow.jpg,leftarrow.jpg,rightarrow.jpg,rightarrow.jpg,32.5pct,26.5pct,32.5pct5.0.6.0,win,21217,20:51:25,10_1,4,ANT_R,221,validspatialcue3,4,5,valid,2,1,1,1,400,500,1700,3587,0,0,1700,1,0,0,leftarrow.jpg,leftarrow.jpg,rightarrow.jpg,leftarrow.jpg,leftarrow.jpg,67.5pct,61.5pct,67.5pct5.0.6.0,win,21217,20:51:25,10_1,4,ANT_R,222,doublecue,5,2,double,2,1,1,1,400,500,1700,2636,0,0,1700,1,0,0,leftarrow.jpg,leftarrow.jpg,rightarrow.jpg,leftarrow.jpg,leftarrow.jpg,67.5pct,61.5pct,67.5pct5.0.6.0,win,21217,20:51:25,10_1,4,ANT_R,223,validspatialcue2,6,4,valid,2,1,2,2,400,500,1700,3694,0,0,1700,1,0,0,rightarrow.jpg,rightarrow.jpg,leftarrow.jpg,rightarrow.jpg,rightarrow.jpg,67.5pct,61.5pct,67.5pct5.0.6.0,win,21217,20:51:25,10_1,4,ANT_R,224,doublecue,7,2,double,1,2,1,2,400,500,1700,3466,0,0,1700,1,0,0,rightarrow.jpg,rightarrow.jpg,rightarrow.jpg,rightarrow.jpg,rightarrow.jpg,32.5pct,26.5pct,67.5pct5.0.6.0,win,21217,20:51:25,10_1,4,ANT_R,225,validspatialcue3,8,5,valid,1,2,1,2,0,500,1700,3045,0,0,1700,1,0,0,rightarrow.jpg,rightarrow.jpg,rightarrow.jpg,rightarrow.jpg,rightarrow.jpg,32.5pct,26.5pct,32.5pct5.0.6.0,win,21217,20:51:25,10_1,4,ANT_R,226,validspatialcue3,9,5,valid,1,1,2,2,400,500,1700,2507,0,0,1700,1,0,0,leftarrow.jpg,leftarrow.jpg,leftarrow.jpg,leftarrow.jpg,leftarrow.jpg,67.5pct,61.5pct,67.5pct5.0.6.0,win,21217,20:51:25,10_1,4,ANT_R,227,validspatialcue2,10,4,valid,2,2,2,1,800,500,1700,2380,0,0,1700,1,0,0,rightarrow.jpg,rightarrow.jpg,leftarrow.jpg,rightarrow.jpg,rightarrow.jpg,32.5pct,26.5pct,32.5pct5.0.6.0,win,21217,20:51:25,10_1,4,ANT_R,228,invalidspatialcue,11,6,invalid,1,2,2,1,800,500,1700,2817,0,0,1700,1,0,0,leftarrow.jpg,leftarrow.jpg,leftarrow.jpg,leftarrow.jpg,leftarrow.jpg,32.5pct,26.5pct,67.5pct5.0.6.0,win,21217,20:51:25,10_1,4,ANT_R,229,validspatialcue2,12,4,valid,1,1,2,2,400,500,1700,3266,0,0,1700,1,0,0,leftarrow.jpg,leftarrow.jpg,leftarrow.jpg,leftarrow.jpg,leftarrow.jpg,67.5pct,61.5pct,67.5pct5.0.6.0,win,21217,20:51:25,10_1,4,ANT_R,230,validspatialcue1,13,3,valid,1,1,2,2,800,500,1700,2867,0,0,1700,1,0,0,leftarrow.jpg,leftarrow.jpg,leftarrow.jpg,leftarrow.jpg,leftarrow.jpg,67.5pct,61.5pct,67.5pct5.0.6.0,win,21217,20:51:25,10_1,4,ANT_R,231,validspatialcue1,14,3,valid,2,2,1,2,0,500,1700,2977,0,0,1700,1,0,0,leftarrow.jpg,leftarrow.jpg,rightarrow.jpg,leftarrow.jpg,leftarrow.jpg,32.5pct,26.5pct,32.5pct5.0.6.0,win,21217,20:51:25,10_1,4,ANT_R,232,validspatialcue2,15,4,valid,2,2,2,1,0,500,1700,2081,0,0,1700,1,0,0,rightarrow.jpg,rightarrow.jpg,leftarrow.jpg,rightarrow.jpg,rightarrow.jpg,32.5pct,26.5pct,32.5pct5.0.6.0,win,21217,20:51:25,10_1,4,ANT_R,233,validspatialcue2,16,4,valid,1,2,2,1,400,500,1700,2957,0,0,1700,1,0,0,leftarrow.jpg,leftarrow.jpg,leftarrow.jpg,leftarrow.jpg,leftarrow.jpg,32.5pct,26.5pct,32.5pct5.0.6.0,win,21217,20:51:25,10_1,4,ANT_R,234,nocue,17,1,NA,1,2,2,1,400,500,1700,2812,0,0,1700,1,0,0,leftarrow.jpg,leftarrow.jpg,leftarrow.jpg,leftarrow.jpg,leftarrow.jpg,32.5pct,26.5pct,50pct5.0.6.0,win,21217,20:51:25,10_1,4,ANT_R,235,validspatialcue1,18,3,valid,2,2,2,1,0,500,1700,3172,0,0,1700,1,0,0,rightarrow.jpg,rightarrow.jpg,leftarrow.jpg,rightarrow.jpg,rightarrow.jpg,32.5pct,26.5pct,32.5pct5.0.6.0,win,21217,20:51:25,10_1,4,ANT_R,236,nocue,19,1,NA,1,1,1,1,0,500,1700,3358,0,0,1700,1,0,0,rightarrow.jpg,rightarrow.jpg,rightarrow.jpg,rightarrow.jpg,rightarrow.jpg,67.5pct,61.5pct,50pct5.0.6.0,win,21217,20:51:25,10_1,4,ANT_R,237,validspatialcue3,20,5,valid,2,2,1,2,0,500,1700,3428,0,0,1700,1,0,0,leftarrow.jpg,leftarrow.jpg,rightarrow.jpg,leftarrow.jpg,leftarrow.jpg,32.5pct,26.5pct,32.5pct5.0.6.0,win,21217,20:51:25,10_1,4,ANT_R,238,invalidspatialcue,21,6,invalid,1,2,1,2,800,500,1700,2009,0,0,1700,1,0,0,rightarrow.jpg,rightarrow.jpg,rightarrow.jpg,rightarrow.jpg,rightarrow.jpg,32.5pct,26.5pct,67.5pct5.0.6.0,win,21217,20:51:25,10_1,4,ANT_R,239,nocue,22,1,NA,2,1,2,2,0,500,1700,3394,0,0,1700,1,0,0,rightarrow.jpg,rightarrow.jpg,leftarrow.jpg,rightarrow.jpg,rightarrow.jpg,67.5pct,61.5pct,50pct5.0.6.0,win,21217,20:51:25,10_1,4,ANT_R,240,invalidspatialcue,23,6,invalid,2,1,1,1,400,500,1700,2752,0,0,1700,1,0,0,leftarrow.jpg,leftarrow.jpg,rightarrow.jpg,leftarrow.jpg,leftarrow.jpg,67.5pct,61.5pct,32.5pct5.0.6.0,win,21217,20:51:25,10_1,4,ANT_R,241,doublecue,24,2,double,2,2,1,2,0,500,1700,2920,0,0,1700,1,0,0,leftarrow.jpg,leftarrow.jpg,rightarrow.jpg,leftarrow.jpg,leftarrow.jpg,32.5pct,26.5pct,67.5pct5.0.6.0,win,21217,20:51:25,10_1,4,ANT_R,242,nocue,25,1,NA,2,2,2,1,800,500,1700,2708,0,0,1700,1,0,0,rightarrow.jpg,rightarrow.jpg,leftarrow.jpg,rightarrow.jpg,rightarrow.jpg,32.5pct,26.5pct,50pct5.0.6.0,win,21217,20:51:25,10_1,4,ANT_R,243,validspatialcue2,26,4,valid,1,1,1,1,400,500,1700,2666,0,0,1700,1,0,0,rightarrow.jpg,rightarrow.jpg,rightarrow.jpg,rightarrow.jpg,rightarrow.jpg,67.5pct,61.5pct,67.5pct5.0.6.0,win,21217,20:51:25,10_1,4,ANT_R,244,validspatialcue3,27,5,valid,1,1,1,1,800,500,1700,2767,0,0,1700,1,0,0,rightarrow.jpg,rightarrow.jpg,rightarrow.jpg,rightarrow.jpg,rightarrow.jpg,67.5pct,61.5pct,67.5pct5.0.6.0,win,21217,20:51:25,10_1,4,ANT_R,245,nocue,28,1,NA,1,1,2,2,800,500,1700,3558,0,0,1700,1,0,0,leftarrow.jpg,leftarrow.jpg,leftarrow.jpg,leftarrow.jpg,leftarrow.jpg,67.5pct,61.5pct,50pct5.0.6.0,win,21217,20:51:25,10_1,4,ANT_R,246,doublecue,29,2,double,1,2,2,1,800,500,1700,2547,0,0,1700,1,0,0,leftarrow.jpg,leftarrow.jpg,leftarrow.jpg,leftarrow.jpg,leftarrow.jpg,32.5pct,26.5pct,67.5pct5.0.6.0,win,21217,20:51:25,10_1,4,ANT_R,247,doublecue,30,2,double,2,1,2,2,0,500,1700,3003,0,0,1700,1,0,0,rightarrow.jpg,rightarrow.jpg,leftarrow.jpg,rightarrow.jpg,rightarrow.jpg,67.5pct,61.5pct,67.5pct5.0.6.0,win,21217,20:51:25,10_1,4,ANT_R,248,invalidspatialcue,31,6,invalid,1,2,2,1,0,500,1700,2229,0,0,1700,1,0,0,leftarrow.jpg,leftarrow.jpg,leftarrow.jpg,leftarrow.jpg,leftarrow.jpg,32.5pct,26.5pct,67.5pct5.0.6.0,win,21217,20:51:25,10_1,4,ANT_R,249,invalidspatialcue,32,6,invalid,1,1,1,1,0,500,1700,2353,0,0,1700,1,0,0,rightarrow.jpg,rightarrow.jpg,rightarrow.jpg,rightarrow.jpg,rightarrow.jpg,67.5pct,61.5pct,32.5pct5.0.6.0,win,21217,20:51:25,10_1,4,ANT_R,250,validspatialcue3,33,5,valid,1,1,2,2,0,500,1700,3089,0,0,1700,1,0,0,leftarrow.jpg,leftarrow.jpg,leftarrow.jpg,leftarrow.jpg,leftarrow.jpg,67.5pct,61.5pct,67.5pct5.0.6.0,win,21217,20:51:25,10_1,4,ANT_R,251,validspatialcue1,34,3,valid,1,2,1,2,0,500,1700,2077,0,0,1700,1,0,0,rightarrow.jpg,rightarrow.jpg,rightarrow.jpg,rightarrow.jpg,rightarrow.jpg,32.5pct,26.5pct,32.5pct5.0.6.0,win,21217,20:51:25,10_1,4,ANT_R,252,doublecue,35,2,double,1,1,1,1,400,500,1700,3601,0,0,1700,1,0,0,rightarrow.jpg,rightarrow.jpg,rightarrow.jpg,rightarrow.jpg,rightarrow.jpg,67.5pct,61.5pct,67.5pct5.0.6.0,win,21217,20:51:25,10_1,4,ANT_R,253,validspatialcue1,36,3,valid,2,1,2,2,800,500,1700,3273,0,0,1700,1,0,0,rightarrow.jpg,rightarrow.jpg,leftarrow.jpg,rightarrow.jpg,rightarrow.jpg,67.5pct,61.5pct,67.5pct5.0.6.0,win,21217,20:51:25,10_1,4,ANT_R,254,validspatialcue3,37,5,valid,2,1,2,2,800,500,1700,2291,0,0,1700,1,0,0,rightarrow.jpg,rightarrow.jpg,leftarrow.jpg,rightarrow.jpg,rightarrow.jpg,67.5pct,61.5pct,67.5pct5.0.6.0,win,21217,20:51:25,10_1,4,ANT_R,255,validspatialcue1,38,3,valid,2,1,2,2,0,500,1700,2019,0,0,1700,1,0,0,rightarrow.jpg,rightarrow.jpg,leftarrow.jpg,rightarrow.jpg,rightarrow.jpg,67.5pct,61.5pct,67.5pct5.0.6.0,win,21217,20:51:25,10_1,4,ANT_R,256,validspatialcue2,39,4,valid,2,2,2,1,400,500,1700,2743,0,0,1700,1,0,0,rightarrow.jpg,rightarrow.jpg,leftarrow.jpg,rightarrow.jpg,rightarrow.jpg,32.5pct,26.5pct,32.5pct5.0.6.0,win,21217,20:51:25,10_1,4,ANT_R,257,invalidspatialcue,40,6,invalid,2,1,2,2,800,500,1700,2934,0,0,1700,1,0,0,rightarrow.jpg,rightarrow.jpg,leftarrow.jpg,rightarrow.jpg,rightarrow.jpg,67.5pct,61.5pct,32.5pct5.0.6.0,win,21217,20:51:25,10_1,4,ANT_R,258,invalidspatialcue,41,6,invalid,2,1,1,1,0,500,1700,3254,0,0,1700,1,0,0,leftarrow.jpg,leftarrow.jpg,rightarrow.jpg,leftarrow.jpg,leftarrow.jpg,67.5pct,61.5pct,32.5pct5.0.6.0,win,21217,20:51:25,10_1,4,ANT_R,259,validspatialcue1,42,3,valid,1,2,1,2,400,500,1700,2090,0,0,1700,1,0,0,rightarrow.jpg,rightarrow.jpg,rightarrow.jpg,rightarrow.jpg,rightarrow.jpg,32.5pct,26.5pct,32.5pct5.0.6.0,win,21217,20:51:25,10_1,4,ANT_R,260,validspatialcue1,43,3,valid,1,1,2,2,400,500,1700,2049,0,0,1700,1,0,0,leftarrow.jpg,leftarrow.jpg,leftarrow.jpg,leftarrow.jpg,leftarrow.jpg,67.5pct,61.5pct,67.5pct5.0.6.0,win,21217,20:51:25,10_1,4,ANT_R,261,nocue,44,1,NA,1,2,1,2,0,500,1700,3049,0,0,1700,1,0,0,rightarrow.jpg,rightarrow.jpg,rightarrow.jpg,rightarrow.jpg,rightarrow.jpg,32.5pct,26.5pct,50pct5.0.6.0,win,21217,20:51:25,10_1,4,ANT_R,262,nocue,45,1,NA,2,2,1,2,400,500,1700,3088,0,0,1700,1,0,0,leftarrow.jpg,leftarrow.jpg,rightarrow.jpg,leftarrow.jpg,leftarrow.jpg,32.5pct,26.5pct,50pct5.0.6.0,win,21217,20:51:25,10_1,4,ANT_R,263,nocue,46,1,NA,1,1,2,2,0,500,1700,2233,0,0,1700,1,0,0,leftarrow.jpg,leftarrow.jpg,leftarrow.jpg,leftarrow.jpg,leftarrow.jpg,67.5pct,61.5pct,50pct5.0.6.0,win,21217,20:51:25,10_1,4,ANT_R,264,validspatialcue2,47,4,valid,1,1,1,1,800,500,1700,3045,0,0,1700,1,0,0,rightarrow.jpg,rightarrow.jpg,rightarrow.jpg,rightarrow.jpg,rightarrow.jpg,67.5pct,61.5pct,67.5pct5.0.6.0,win,21217,20:51:25,10_1,4,ANT_R,265,nocue,48,1,NA,1,1,1,1,800,500,1700,2233,0,0,1700,1,0,0,rightarrow.jpg,rightarrow.jpg,rightarrow.jpg,rightarrow.jpg,rightarrow.jpg,67.5pct,61.5pct,50pct5.0.6.0,win,21217,20:51:25,10_1,4,ANT_R,266,doublecue,49,2,double,1,1,2,2,800,500,1700,3552,0,0,1700,1,0,0,leftarrow.jpg,leftarrow.jpg,leftarrow.jpg,leftarrow.jpg,leftarrow.jpg,67.5pct,61.5pct,67.5pct5.0.6.0,win,21217,20:51:25,10_1,4,ANT_R,267,nocue,50,1,NA,2,1,2,2,800,500,1700,2367,0,0,1700,1,0,0,rightarrow.jpg,rightarrow.jpg,leftarrow.jpg,rightarrow.jpg,rightarrow.jpg,67.5pct,61.5pct,50pct5.0.6.0,win,21217,20:51:25,10_1,4,ANT_R,268,validspatialcue1,51,3,valid,2,1,1,1,400,500,1700,3657,0,0,1700,1,0,0,leftarrow.jpg,leftarrow.jpg,rightarrow.jpg,leftarrow.jpg,leftarrow.jpg,67.5pct,61.5pct,67.5pct5.0.6.0,win,21217,20:51:25,10_1,4,ANT_R,269,doublecue,52,2,double,1,2,2,1,400,500,1700,2607,0,0,1700,1,0,0,leftarrow.jpg,leftarrow.jpg,leftarrow.jpg,leftarrow.jpg,leftarrow.jpg,32.5pct,26.5pct,67.5pct5.0.6.0,win,21217,20:51:25,10_1,4,ANT_R,270,invalidspatialcue,53,6,invalid,2,1,2,2,400,500,1700,3152,0,0,1700,1,0,0,rightarrow.jpg,rightarrow.jpg,leftarrow.jpg,rightarrow.jpg,rightarrow.jpg,67.5pct,61.5pct,32.5pct5.0.6.0,win,21217,20:51:25,10_1,4,ANT_R,271,nocue,54,1,NA,1,2,2,1,800,500,1700,3381,0,0,1700,1,0,0,leftarrow.jpg,leftarrow.jpg,leftarrow.jpg,leftarrow.jpg,leftarrow.jpg,32.5pct,26.5pct,50pct5.0.6.0,win,21217,20:51:25,10_1,4,ANT_R,272,validspatialcue3,55,5,valid,1,1,2,2,800,500,1700,3565,0,0,1700,1,0,0,leftarrow.jpg,leftarrow.jpg,leftarrow.jpg,leftarrow.jpg,leftarrow.jpg,67.5pct,61.5pct,67.5pct5.0.6.0,win,21217,20:51:25,10_1,4,ANT_R,273,validspatialcue2,56,4,valid,2,2,1,2,0,500,1700,2783,0,0,1700,1,0,0,leftarrow.jpg,leftarrow.jpg,rightarrow.jpg,leftarrow.jpg,leftarrow.jpg,32.5pct,26.5pct,32.5pct5.0.6.0,win,21217,20:51:25,10_1,4,ANT_R,274,doublecue,57,2,double,1,2,1,2,800,500,1700,3182,0,0,1700,1,0,0,rightarrow.jpg,rightarrow.jpg,rightarrow.jpg,rightarrow.jpg,rightarrow.jpg,32.5pct,26.5pct,67.5pct