build,computer.platform,date,time,subject,group,blockcode,blocknum,trialcode,response,expressions.nr_targettrials_AX,expressions.nr_nontargettrials_AY,expressions.nr_nontargettrials_BX,expressions.nr_nontargettrials_BY,expressions.phase1trials,expressions.phase3trials,values.trialcount,values.counttrials,values.trialtype,values.phase,values.cue,values.distractor1,values.distractor2,values.probe,stimulusitem1,response,correct,latency5.0.6.0,win,12217,0:24:57,10,10,rey_trial1_pres_instruct,2,trial1_pres_instruct1,0,175,25,25,25,100,150,1,0,0,0,0,0,0,0,Task 1,0,0,10005.0.6.0,win,12217,0:24:57,10,10,rey_trial1_pres_instruct,2,trial1_pres_instruct2,57,175,25,25,25,100,150,2,0,0,0,0,0,0,0,"This task may seem a bit difficult in the beginning, but usually it gets easier as we go along.",57,0,68475.0.6.0,win,12217,0:24:57,10,10,rey_trial1_pres_instruct,2,trial1_pres_instruct3,57,175,25,25,25,100,150,3,0,0,0,0,0,0,0,"This task may seem a bit difficult in the beginning, but usually it gets easier as we go along.  You are going to see words appear on the screen one by one.",57,0,492815.0.6.0,win,12217,0:24:57,10,10,rey_trial1_pres_instruct,2,trial1_pres_instruct4,57,175,25,25,25,100,150,4,0,0,0,0,0,0,0,"This task may seem a bit difficult in the beginning, but usually it gets easier as we go along.   You are going to see words appear on the screen one by one.  After all the words have finished appearing on the screen, you will be asked to type in as many of the words as you can remember.",57,0,98945.0.6.0,win,12217,0:24:57,10,10,rey_trial1_pres_instruct,2,trial1_pres_instruct5,57,175,25,25,25,100,150,5,0,0,0,0,0,0,0,You can type them in any order that comes to mind.,57,0,26065.0.6.0,win,12217,0:24:57,10,10,rey_trial1_pres_instruct,2,trial1_pres_instruct6,57,175,25,25,25,100,150,6,0,0,0,0,0,0,0,You can type them in any order that comes to mind.   Try not to repeat yourself by giving the same word more than once.,57,0,30065.0.6.0,win,12217,0:24:57,10,10,rey_trial1_pres_instruct,2,trial1_pres_instruct7,57,175,25,25,25,100,150,7,0,0,0,0,0,0,0,"You can type them in any order that comes to mind.   Try not to repeat yourself by giving the same word more than once.   Remember, the order does not matter and it is okay if you cannot remember some words.",57,0,33445.0.6.0,win,12217,0:24:57,10,10,rey_trial1_pres_instruct,2,trial1_pres_instruct8,57,175,25,25,25,100,150,8,0,0,0,0,0,0,0,"You can type them in any order that comes to mind.   Try not to repeat yourself by giving the same word more than once.   Remember, the order does not matter and it is okay if you cannot remember some words.   You are then going to do this task a few more times to see how many words you can eventually learn.",57,0,30395.0.6.0,win,12217,0:24:57,10,10,rey_trial1_pres_instruct,2,trial1_pres_instruct9,57,175,25,25,25,100,150,9,0,0,0,0,0,0,0,Press spacebar when you are ready to begin the task.,57,0,23995.0.6.0,win,12217,0:24:57,10,10,rey_trial1_recall,4,trial1_recall_response1,school,175,25,25,25,100,150,1,0,0,0,0,0,0,0,recallrect2_empty,school,0,116405.0.6.0,win,12217,0:24:57,10,10,rey_trial1_recall,4,trial1_recall_response2,coffe,175,25,25,25,100,150,2,0,0,0,0,0,0,0,recallrect1_full,coffe,0,28875.0.6.0,win,12217,0:24:57,10,10,rey_trial1_recall,4,trial1_recall_response3,riven,175,25,25,25,100,150,3,0,0,0,0,0,0,0,recallrect1_full,riven,0,43485.0.6.0,win,12217,0:24:57,10,10,rey_trial1_recall,4,trial1_recall_response4,drum,175,25,25,25,100,150,4,0,0,0,0,0,0,0,recallrect1_full,drum,0,66325.0.6.0,win,12217,0:24:57,10,10,rey_trial1_recall,4,trial1_recall_response5,moon,175,25,25,25,100,150,5,0,0,0,0,0,0,0,recallrect1_full,moon,0,66095.0.6.0,win,12217,0:24:57,10,10,rey_trial1_recall,4,trial1_recall_response6,river,175,25,25,25,100,150,6,0,0,0,0,0,0,0,recallrect1_full,river,0,158615.0.6.0,win,12217,0:24:57,10,10,rey_trial1_recall,4,trial1_recall_response7,nose,175,25,25,25,100,150,7,0,0,0,0,0,0,0,recallrect1_full,nose,0,47895.0.6.0,win,12217,0:24:57,10,10,rey_trial1_recall,4,trial1_recall_response8,noise,175,25,25,25,100,150,8,0,0,0,0,0,0,0,recallrect1_full,noise,0,14385.0.6.0,win,12217,0:24:57,10,10,rey_trial1_recall,4,trial1_recall_response9,farmer,175,25,25,25,100,150,9,0,0,0,0,0,0,0,recallrect1_full,farmer,0,72705.0.6.0,win,12217,0:24:57,10,10,rey_trial1_recall,4,trial1_recall_response10,,175,25,25,25,100,150,10,0,0,0,0,0,0,0,recallrect1_full,,0,37025.0.6.0,win,12217,0:24:57,10,10,rey_trial2_pres_instruct,5,trial2_pres_instruct1,57,175,25,25,25,100,150,1,0,0,0,0,0,0,0,"Good, that was a good beginning.",57,0,49865.0.6.0,win,12217,0:24:57,10,10,rey_trial2_pres_instruct,5,trial2_pres_instruct2,57,175,25,25,25,100,150,2,0,0,0,0,0,0,0,"Good, that was a good beginning.   Now, you will see the same words you saw before.",57,0,19935.0.6.0,win,12217,0:24:57,10,10,rey_trial2_pres_instruct,5,trial2_pres_instruct3,57,175,25,25,25,100,150,3,0,0,0,0,0,0,0,"Good, that was a good beginning.   Now, you will see the same words you saw before.   At the end, you will be asked to type in as many words as you can remember including all the words you remembered on the first trial.",57,0,46325.0.6.0,win,12217,0:24:57,10,10,rey_trial2_recall,7,trial2_recall_response1,river,175,25,25,25,100,150,1,0,0,0,0,0,0,0,recallrect2_empty,river,0,38315.0.6.0,win,12217,0:24:57,10,10,rey_trial2_recall,7,trial2_recall_response2,house,175,25,25,25,100,150,2,0,0,0,0,0,0,0,recallrect1_full,house,0,27095.0.6.0,win,12217,0:24:57,10,10,rey_trial2_recall,7,trial2_recall_response3,parents,175,25,25,25,100,150,3,0,0,0,0,0,0,0,recallrect1_full,parents,0,25905.0.6.0,win,12217,0:24:57,10,10,rey_trial2_recall,7,trial2_recall_response4,school,175,25,25,25,100,150,4,0,0,0,0,0,0,0,recallrect1_full,school,0,24375.0.6.0,win,12217,0:24:57,10,10,rey_trial2_recall,7,trial2_recall_response5,river,175,25,25,25,100,150,5,0,0,0,0,0,0,0,recallrect1_full,river,0,42105.0.6.0,win,12217,0:24:57,10,10,rey_trial2_recall,7,trial2_recall_response6,nose,175,25,25,25,100,150,6,0,0,0,0,0,0,0,recallrect1_full,nose,0,12895.0.6.0,win,12217,0:24:57,10,10,rey_trial2_recall,7,trial2_recall_response7,garden,175,25,25,25,100,150,7,0,0,0,0,0,0,0,recallrect1_full,garden,0,37825.0.6.0,win,12217,0:24:57,10,10,rey_trial2_recall,7,trial2_recall_response8,moon,175,25,25,25,100,150,8,0,0,0,0,0,0,0,recallrect1_full,moon,0,30835.0.6.0,win,12217,0:24:57,10,10,rey_trial2_recall,7,trial2_recall_response9,garden,175,25,25,25,100,150,9,0,0,0,0,0,0,0,recallrect1_full,garden,0,28575.0.6.0,win,12217,0:24:57,10,10,rey_trial2_recall,7,trial2_recall_response10,curtain,175,25,25,25,100,150,10,0,0,0,0,0,0,0,recallrect1_full,curtain,0,23605.0.6.0,win,12217,0:24:57,10,10,rey_trial2_recall,7,trial2_recall_response11,farmer,175,25,25,25,100,150,11,0,0,0,0,0,0,0,recallrect1_full,farmer,0,69335.0.6.0,win,12217,0:24:57,10,10,rey_trial2_recall,7,trial2_recall_response12,,175,25,25,25,100,150,12,0,0,0,0,0,0,0,recallrect1_full,,0,41815.0.6.0,win,12217,0:24:57,10,10,rey_trial3_pres_instruct,8,trial3_pres_instruct1,57,175,25,25,25,100,150,1,0,0,0,0,0,0,0,"Good, that was a good beginning.",57,0,19295.0.6.0,win,12217,0:24:57,10,10,rey_trial3_pres_instruct,8,trial3_pres_instruct2,57,175,25,25,25,100,150,2,0,0,0,0,0,0,0,"Good, that was a good beginning.   Now, you will see the same words you saw before.",57,0,12095.0.6.0,win,12217,0:24:57,10,10,rey_trial3_pres_instruct,8,trial3_pres_instruct3,57,175,25,25,25,100,150,3,0,0,0,0,0,0,0,"Good, that was a good beginning.   Now, you will see the same words you saw before.   At the end, you will be asked to type in as many words as you can remember including all the words you remembered on the first trial.",57,0,24895.0.6.0,win,12217,0:24:57,10,10,rey_trial3_recall,10,trial3_recall_response1,river,175,25,25,25,100,150,1,0,0,0,0,0,0,0,recallrect2_empty,river,0,20945.0.6.0,win,12217,0:24:57,10,10,rey_trial3_recall,10,trial3_recall_response2,color,175,25,25,25,100,150,2,0,0,0,0,0,0,0,recallrect1_full,color,0,15705.0.6.0,win,12217,0:24:57,10,10,rey_trial3_recall,10,trial3_recall_response3,house,175,25,25,25,100,150,3,0,0,0,0,0,0,0,recallrect1_full,house,0,22835.0.6.0,win,12217,0:24:57,10,10,rey_trial3_recall,10,trial3_recall_response4,parents,175,25,25,25,100,150,4,0,0,0,0,0,0,0,recallrect1_full,parents,0,23235.0.6.0,win,12217,0:24:57,10,10,rey_trial3_recall,10,trial3_recall_response5,hat,175,25,25,25,100,150,5,0,0,0,0,0,0,0,recallrect1_full,hat,0,19255.0.6.0,win,12217,0:24:57,10,10,rey_trial3_recall,10,trial3_recall_response6,nose,175,25,25,25,100,150,6,0,0,0,0,0,0,0,recallrect1_full,nose,0,17975.0.6.0,win,12217,0:24:57,10,10,rey_trial3_recall,10,trial3_recall_response7,farmer,175,25,25,25,100,150,7,0,0,0,0,0,0,0,recallrect1_full,farmer,0,31005.0.6.0,win,12217,0:24:57,10,10,rey_trial3_recall,10,trial3_recall_response8,garden,175,25,25,25,100,150,8,0,0,0,0,0,0,0,recallrect1_full,garden,0,15115.0.6.0,win,12217,0:24:57,10,10,rey_trial3_recall,10,trial3_recall_response9,drum,175,25,25,25,100,150,9,0,0,0,0,0,0,0,recallrect1_full,drum,0,11715.0.6.0,win,12217,0:24:57,10,10,rey_trial3_recall,10,trial3_recall_response10,bell,175,25,25,25,100,150,10,0,0,0,0,0,0,0,recallrect1_full,bell,0,12035.0.6.0,win,12217,0:24:57,10,10,rey_trial3_recall,10,trial3_recall_response11,turkey,175,25,25,25,100,150,11,0,0,0,0,0,0,0,recallrect1_full,turkey,0,53835.0.6.0,win,12217,0:24:57,10,10,rey_trial3_recall,10,trial3_recall_response12,curtain,175,25,25,25,100,150,12,0,0,0,0,0,0,0,recallrect1_full,curtain,0,75815.0.6.0,win,12217,0:24:57,10,10,rey_trial3_recall,10,trial3_recall_response13,school,175,25,25,25,100,150,13,0,0,0,0,0,0,0,recallrect1_full,school,0,41455.0.6.0,win,12217,0:24:57,10,10,rey_trial3_recall,10,trial3_recall_response14,coffe,175,25,25,25,100,150,14,0,0,0,0,0,0,0,recallrect1_full,coffe,0,20725.0.6.0,win,12217,0:24:57,10,10,rey_trial3_recall,10,trial3_recall_response15,moon,175,25,25,25,100,150,15,0,0,0,0,0,0,0,recallrect1_full,moon,0,30535.0.6.0,win,12217,0:24:57,10,10,rey_trial3_recall,10,trial3_recall_response16,,175,25,25,25,100,150,16,0,0,0,0,0,0,0,recallrect1_full,,0,10715.0.6.0,win,12217,0:24:57,10,10,rey_trial4_pres_instruct,11,trial4_pres_instruct1,57,175,25,25,25,100,150,1,0,0,0,0,0,0,0,"Good, that was a good beginning.",57,0,13125.0.6.0,win,12217,0:24:57,10,10,rey_trial4_pres_instruct,11,trial4_pres_instruct2,57,175,25,25,25,100,150,2,0,0,0,0,0,0,0,"Good, that was a good beginning.   Now, you will see the same words you saw before.",57,0,9295.0.6.0,win,12217,0:24:57,10,10,rey_trial4_pres_instruct,11,trial4_pres_instruct3,57,175,25,25,25,100,150,3,0,0,0,0,0,0,0,"Good, that was a good beginning.   Now, you will see the same words you saw before.   At the end, you will be asked to type in as many words as you can remember including all the words you remembered on the first trial.",57,0,8335.0.6.0,win,12217,0:24:57,10,10,rey_trial4_recall,13,trial4_recall_response1,river,175,25,25,25,100,150,1,0,0,0,0,0,0,0,recallrect2_empty,river,0,26445.0.6.0,win,12217,0:24:57,10,10,rey_trial4_recall,13,trial4_recall_response2,house,175,25,25,25,100,150,2,0,0,0,0,0,0,0,recallrect1_full,house,0,17875.0.6.0,win,12217,0:24:57,10,10,rey_trial4_recall,13,trial4_recall_response3,nose,175,25,25,25,100,150,3,0,0,0,0,0,0,0,recallrect1_full,nose,0,11945.0.6.0,win,12217,0:24:57,10,10,rey_trial4_recall,13,trial4_recall_response4,parent,175,25,25,25,100,150,4,0,0,0,0,0,0,0,recallrect1_full,parent,0,17275.0.6.0,win,12217,0:24:57,10,10,rey_trial4_recall,13,trial4_recall_response5,garden,175,25,25,25,100,150,5,0,0,0,0,0,0,0,recallrect1_full,garden,0,42215.0.6.0,win,12217,0:24:57,10,10,rey_trial4_recall,13,trial4_recall_response6,farmer,175,25,25,25,100,150,6,0,0,0,0,0,0,0,recallrect1_full,farmer,0,15035.0.6.0,win,12217,0:24:57,10,10,rey_trial4_recall,13,trial4_recall_response7,bell,175,25,25,25,100,150,7,0,0,0,0,0,0,0,recallrect1_full,bell,0,17085.0.6.0,win,12217,0:24:57,10,10,rey_trial4_recall,13,trial4_recall_response8,drum,175,25,25,25,100,150,8,0,0,0,0,0,0,0,recallrect1_full,drum,0,25905.0.6.0,win,12217,0:24:57,10,10,rey_trial4_recall,13,trial4_recall_response9,moon,175,25,25,25,100,150,9,0,0,0,0,0,0,0,recallrect1_full,moon,0,21005.0.6.0,win,12217,0:24:57,10,10,rey_trial4_recall,13,trial4_recall_response10,school,175,25,25,25,100,150,10,0,0,0,0,0,0,0,recallrect1_full,school,0,82095.0.6.0,win,12217,0:24:57,10,10,rey_trial4_recall,13,trial4_recall_response11,coffe,175,25,25,25,100,150,11,0,0,0,0,0,0,0,recallrect1_full,coffe,0,15925.0.6.0,win,12217,0:24:57,10,10,rey_trial4_recall,13,trial4_recall_response12,turkey,175,25,25,25,100,150,12,0,0,0,0,0,0,0,recallrect1_full,turkey,0,63095.0.6.0,win,12217,0:24:57,10,10,rey_trial4_recall,13,trial4_recall_response13,color,175,25,25,25,100,150,13,0,0,0,0,0,0,0,recallrect1_full,color,0,12545.0.6.0,win,12217,0:24:57,10,10,rey_trial4_recall,13,trial4_recall_response14,river,175,25,25,25,100,150,14,0,0,0,0,0,0,0,recallrect1_full,river,0,36355.0.6.0,win,12217,0:24:57,10,10,rey_trial4_recall,13,trial4_recall_response15,,175,25,25,25,100,150,15,0,0,0,0,0,0,0,recallrect1_full,,0,67535.0.6.0,win,12217,0:24:57,10,10,rey_trial5_pres_instruct,14,trial5_pres_instruct1,57,175,25,25,25,100,150,1,0,0,0,0,0,0,0,"Good, that was a good beginning.",57,0,12955.0.6.0,win,12217,0:24:57,10,10,rey_trial5_pres_instruct,14,trial5_pres_instruct2,57,175,25,25,25,100,150,2,0,0,0,0,0,0,0,"Good, that was a good beginning.   Now, you will see the same words you saw before.",57,0,3325.0.6.0,win,12217,0:24:57,10,10,rey_trial5_pres_instruct,14,trial5_pres_instruct3,57,175,25,25,25,100,150,3,0,0,0,0,0,0,0,"Good, that was a good beginning.   Now, you will see the same words you saw before.   At the end, you will be asked to type in as many words as you can remember including all the words you remembered on the first trial.",57,0,2015.0.6.0,win,12217,0:24:57,10,10,rey_trial5_recall,16,trial5_recall_response1,river,175,25,25,25,100,150,1,0,0,0,0,0,0,0,recallrect2_empty,river,0,15235.0.6.0,win,12217,0:24:57,10,10,rey_trial5_recall,16,trial5_recall_response2,house,175,25,25,25,100,150,2,0,0,0,0,0,0,0,recallrect1_full,house,0,12835.0.6.0,win,12217,0:24:57,10,10,rey_trial5_recall,16,trial5_recall_response3,parent,175,25,25,25,100,150,3,0,0,0,0,0,0,0,recallrect1_full,parent,0,11995.0.6.0,win,12217,0:24:57,10,10,rey_trial5_recall,16,trial5_recall_response4,turkey,175,25,25,25,100,150,4,0,0,0,0,0,0,0,recallrect1_full,turkey,0,14785.0.6.0,win,12217,0:24:57,10,10,rey_trial5_recall,16,trial5_recall_response5,color,175,25,25,25,100,150,5,0,0,0,0,0,0,0,recallrect1_full,color,0,12375.0.6.0,win,12217,0:24:57,10,10,rey_trial5_recall,16,trial5_recall_response6,garden,175,25,25,25,100,150,6,0,0,0,0,0,0,0,recallrect1_full,garden,0,52785.0.6.0,win,12217,0:24:57,10,10,rey_trial5_recall,16,trial5_recall_response7,farmer,175,25,25,25,100,150,7,0,0,0,0,0,0,0,recallrect1_full,farmer,0,12265.0.6.0,win,12217,0:24:57,10,10,rey_trial5_recall,16,trial5_recall_response8,parent,175,25,25,25,100,150,8,0,0,0,0,0,0,0,recallrect1_full,parent,0,23425.0.6.0,win,12217,0:24:57,10,10,rey_trial5_recall,16,trial5_recall_response9,school,175,25,25,25,100,150,9,0,0,0,0,0,0,0,recallrect1_full,school,0,44695.0.6.0,win,12217,0:24:57,10,10,rey_trial5_recall,16,trial5_recall_response10,coffe,175,25,25,25,100,150,10,0,0,0,0,0,0,0,recallrect1_full,coffe,0,14795.0.6.0,win,12217,0:24:57,10,10,rey_trial5_recall,16,trial5_recall_response11,drum,175,25,25,25,100,150,11,0,0,0,0,0,0,0,recallrect1_full,drum,0,25865.0.6.0,win,12217,0:24:57,10,10,rey_trial5_recall,16,trial5_recall_response12,bell,175,25,25,25,100,150,12,0,0,0,0,0,0,0,recallrect1_full,bell,0,11895.0.6.0,win,12217,0:24:57,10,10,rey_trial5_recall,16,trial5_recall_response13,moon,175,25,25,25,100,150,13,0,0,0,0,0,0,0,recallrect1_full,moon,0,16775.0.6.0,win,12217,0:24:57,10,10,rey_trial5_recall,16,trial5_recall_response14,nose,175,25,25,25,100,150,14,0,0,0,0,0,0,0,recallrect1_full,nose,0,91125.0.6.0,win,12217,0:24:57,10,10,rey_trial5_recall,16,trial5_recall_response15,coffe,175,25,25,25,100,150,15,0,0,0,0,0,0,0,recallrect1_full,coffe,0,48475.0.6.0,win,12217,0:24:57,10,10,rey_trial5_recall,16,trial5_recall_response16,hat,175,25,25,25,100,150,16,0,0,0,0,0,0,0,recallrect1_full,hat,0,8665.0.6.0,win,12217,0:24:57,10,10,rey_trial5_recall,16,trial5_recall_response17,,175,25,25,25,100,150,17,0,0,0,0,0,0,0,recallrect1_full,,0,58485.0.6.0,win,12217,0:24:57,10,10,rey_trial6_pres_instruct,17,listb_pres_instruct1,28,175,25,25,25,100,150,1,0,0,0,0,0,0,0,Now you are going to see a different list of words appear on the screen one by one.,28,0,32645.0.6.0,win,12217,0:24:57,10,10,rey_trial6_pres_instruct,17,listb_pres_instruct2,57,175,25,25,25,100,150,2,0,0,0,0,0,0,0,"Now you are going to see a different list of words appear on the screen one by one.    Once again, after the words have finished appearing on the screen you will be asked to type in as many of the words as you can remember, in any order that comes to mind.",57,0,41055.0.6.0,win,12217,0:24:57,10,10,rey_trial6_recall,19,listb_recall_response1,fish,175,25,25,25,100,150,1,0,0,0,0,0,0,0,recallrect2_empty,fish,0,24765.0.6.0,win,12217,0:24:57,10,10,rey_trial6_recall,19,listb_recall_response2,church,175,25,25,25,100,150,2,0,0,0,0,0,0,0,recallrect1_full,church,0,36335.0.6.0,win,12217,0:24:57,10,10,rey_trial6_recall,19,listb_recall_response3,gun,175,25,25,25,100,150,3,0,0,0,0,0,0,0,recallrect1_full,gun,0,10215.0.6.0,win,12217,0:24:57,10,10,rey_trial6_recall,19,listb_recall_response4,pencil,175,25,25,25,100,150,4,0,0,0,0,0,0,0,recallrect1_full,pencil,0,13115.0.6.0,win,12217,0:24:57,10,10,rey_trial6_recall,19,listb_recall_response5,stove,175,25,25,25,100,150,5,0,0,0,0,0,0,0,recallrect1_full,stove,0,87885.0.6.0,win,12217,0:24:57,10,10,rey_trial6_recall,19,listb_recall_response6,bird,175,25,25,25,100,150,6,0,0,0,0,0,0,0,recallrect1_full,bird,0,50285.0.6.0,win,12217,0:24:57,10,10,rey_trial6_recall,19,listb_recall_response7,,175,25,25,25,100,150,7,0,0,0,0,0,0,0,recallrect1_full,,0,35145.0.6.0,win,12217,0:24:57,10,10,rey_trial7_pres_instruct,20,trial6_pres_instruct2,28,175,25,25,25,100,150,1,0,0,0,0,0,0,0,Remember the first list which you practiced learning multiple times?,28,0,36615.0.6.0,win,12217,0:24:57,10,10,rey_trial7_pres_instruct,20,trial6_pres_instruct3,28,175,25,25,25,100,150,2,0,0,0,0,0,0,0,Remember the first list which you practiced learning multiple times?   Please type in as many of those words as you can remember in any order that comes to mind.,28,0,12055.0.6.0,win,12217,0:24:57,10,10,rey_trial7_recall,21,trial6_recall_response1,house,175,25,25,25,100,150,1,0,0,0,0,0,0,0,recallrect2_empty,house,0,31785.0.6.0,win,12217,0:24:57,10,10,rey_trial7_recall,21,trial6_recall_response2,garden,175,25,25,25,100,150,2,0,0,0,0,0,0,0,recallrect1_full,garden,0,20245.0.6.0,win,12217,0:24:57,10,10,rey_trial7_recall,21,trial6_recall_response3,parent,175,25,25,25,100,150,3,0,0,0,0,0,0,0,recallrect1_full,parent,0,15825.0.6.0,win,12217,0:24:57,10,10,rey_trial7_recall,21,trial6_recall_response4,nose,175,25,25,25,100,150,4,0,0,0,0,0,0,0,recallrect1_full,nose,0,20395.0.6.0,win,12217,0:24:57,10,10,rey_trial7_recall,21,trial6_recall_response5,color,175,25,25,25,100,150,5,0,0,0,0,0,0,0,recallrect1_full,color,0,17145.0.6.0,win,12217,0:24:57,10,10,rey_trial7_recall,21,trial6_recall_response6,moon,175,25,25,25,100,150,6,0,0,0,0,0,0,0,recallrect1_full,moon,0,47975.0.6.0,win,12217,0:24:57,10,10,rey_trial7_recall,21,trial6_recall_response7,drum,175,25,25,25,100,150,7,0,0,0,0,0,0,0,recallrect1_full,drum,0,18725.0.6.0,win,12217,0:24:57,10,10,rey_trial7_recall,21,trial6_recall_response8,bell,175,25,25,25,100,150,8,0,0,0,0,0,0,0,recallrect1_full,bell,0,9705.0.6.0,win,12217,0:24:57,10,10,rey_trial7_recall,21,trial6_recall_response9,hat,175,25,25,25,100,150,9,0,0,0,0,0,0,0,recallrect1_full,hat,0,13015.0.6.0,win,12217,0:24:57,10,10,rey_trial7_recall,21,trial6_recall_response10,parent,175,25,25,25,100,150,10,0,0,0,0,0,0,0,recallrect1_full,parent,0,129545.0.6.0,win,12217,0:24:57,10,10,rey_trial7_recall,21,trial6_recall_response11,,175,25,25,25,100,150,11,0,0,0,0,0,0,0,recallrect1_full,,0,83655.0.6.0,win,12217,0:24:57,10,10,axcpt,22,task2_instruct2,0,175,25,25,25,100,150,1,0,0,0,0,0,0,0,task2_instruct2.png,0,0,15005.0.6.0,win,12217,0:24:57,10,10,axcpt,22,task2_instruct3,28,175,25,25,25,100,150,2,0,0,0,0,0,0,0,task2_instruct3.png,28,0,64825.0.6.0,win,12217,0:24:57,10,10,axcpt,22,task2_instruct3,28,175,25,25,25,100,150,3,0,0,0,0,0,0,0,task2_instruct3.png,28,0,18335.0.6.0,win,12217,0:24:57,10,10,axcpt,22,task2_instruct3,57,175,25,25,25,100,150,4,0,0,0,0,0,0,0,task2_instruct3.png,57,0,1325.0.6.0,win,12217,0:24:57,10,10,axcpt,22,task2_instruct4,0,175,25,25,25,100,150,5,0,0,0,0,0,0,0,task2_instruct4.png,0,0,5005.0.6.0,win,12217,0:24:57,10,10,axcpt,22,task2_instruct5,0,175,25,25,25,100,150,6,0,0,0,0,0,0,0,task2_instruct5.png,0,0,5005.0.6.0,win,12217,0:24:57,10,10,axcpt,22,task2_instruct6,0,175,25,25,25,100,150,7,0,0,0,0,0,0,0,task2_instruct6.png,0,0,5005.0.6.0,win,12217,0:24:57,10,10,axcpt,22,task2_instruct7,0,175,25,25,25,100,150,8,0,0,0,0,0,0,0,task2_instruct7.png,0,0,5005.0.6.0,win,12217,0:24:57,10,10,axcpt,22,task2_instruct8,0,175,25,25,25,100,150,9,0,0,0,0,0,0,0,task2_instruct8.png,0,0,5005.0.6.0,win,12217,0:24:57,10,10,axcpt,22,task2_instruct9,0,175,25,25,25,100,150,10,0,0,0,0,0,0,0,task2_instruct9.png,0,0,5005.0.6.0,win,12217,0:24:57,10,10,axcpt,22,task2_instruct10,0,175,25,25,25,100,150,11,0,0,0,0,0,0,0,task2_instruct10.png,0,0,5005.0.6.0,win,12217,0:24:57,10,10,axcpt,22,task2_instruct11,57,175,25,25,25,100,150,12,0,0,0,0,0,0,0,task2_instruct11.png,57,0,39675.0.6.0,win,12217,0:24:57,10,10,axcpt,22,task2_instruct12,57,175,25,25,25,100,150,13,0,0,0,0,0,0,0,task2_instruct12.png,57,0,97145.0.6.0,win,12217,0:24:57,10,10,axcpt,22,task2_instruct13,57,175,25,25,25,100,150,14,0,0,0,0,0,0,0,task2_instruct13.png,57,0,109695.0.6.0,win,12217,0:24:57,10,10,axcpt,22,task2_instruct14,57,175,25,25,25,100,150,15,0,0,0,0,0,0,0,task2_instruct14.png,57,0,59195.0.6.0,win,12217,0:24:57,10,10,axcpt,22,task2_instruct15,57,175,25,25,25,100,150,16,0,0,0,0,0,0,0,task2_instruct15.png,57,0,51135.0.6.0,win,12217,0:24:57,10,10,axcpt,22,task2_instruct16,57,175,25,25,25,100,150,17,0,0,0,0,0,0,0,task2_instruct16.png,57,0,45095.0.6.0,win,12217,0:24:57,10,10,axcpt,22,task2_instruct17,57,175,25,25,25,100,150,18,0,0,0,0,0,0,0,task2_instruct17.png,57,0,21175.0.6.0,win,12217,0:24:57,10,10,axcpt,22,task2_instruct18,57,175,25,25,25,100,150,19,0,0,0,0,0,0,0,task2_instruct18.png,57,0,24835.0.6.0,win,12217,0:24:57,10,10,axcpt,22,task2_instruct19,57,175,25,25,25,100,150,20,0,0,0,0,0,0,0,task2_instruct19.png,57,0,105365.0.6.0,win,12217,0:24:57,10,10,axcpt,22,trialselector,0,175,25,25,25,100,150,22,0,2,0,0,0,0,0,0,0,0,05.0.6.0,win,12217,0:24:57,10,10,axcpt,22,AY,0,175,25,25,25,100,150,23,1,2,1,A,I,F,V,A,0,0,12005.0.6.0,win,12217,0:24:57,10,10,axcpt,22,ISI_probe,0,175,25,25,25,100,150,24,1,2,1,A,I,F,V,0,0,0,05.0.6.0,win,12217,0:24:57,10,10,axcpt,22,trialselector,0,175,25,25,25,100,150,25,1,1,1,A,I,F,V,0,0,0,05.0.6.0,win,12217,0:24:57,10,10,axcpt,22,AX,0,175,25,25,25,100,150,26,2,1,1,A,F,O,X,A,0,0,12005.0.6.0,win,12217,0:24:57,10,10,axcpt,22,ISI_probe,0,175,25,25,25,100,150,27,2,1,1,A,F,O,X,0,0,0,05.0.6.0,win,12217,0:24:57,10,10,axcpt,22,trialselector,0,175,25,25,25,100,150,28,2,1,1,A,F,O,X,0,0,0,05.0.6.0,win,12217,0:24:57,10,10,axcpt,22,AX,0,175,25,25,25,100,150,29,3,1,1,A,Q,J,X,A,0,0,12005.0.6.0,win,12217,0:24:57,10,10,axcpt,22,ISI_probe,0,175,25,25,25,100,150,30,3,1,1,A,Q,J,X,0,0,0,05.0.6.0,win,12217,0:24:57,10,10,axcpt,22,trialselector,0,175,25,25,25,100,150,31,3,2,1,A,Q,J,X,0,0,0,05.0.6.0,win,12217,0:24:57,10,10,axcpt,22,AY,0,175,25,25,25,100,150,32,4,2,1,A,F,H,E,A,0,0,12005.0.6.0,win,12217,0:24:57,10,10,axcpt,22,ISI_probe,0,175,25,25,25,100,150,33,4,2,1,A,F,H,E,0,0,0,05.0.6.0,win,12217,0:24:57,10,10,axcpt,22,trialselector,0,175,25,25,25,100,150,34,4,2,1,A,F,H,E,0,0,0,05.0.6.0,win,12217,0:24:57,10,10,axcpt,22,AY,0,175,25,25,25,100,150,35,5,2,1,A,F,Q,V,A,0,0,12005.0.6.0,win,12217,0:24:57,10,10,axcpt,22,ISI_probe,0,175,25,25,25,100,150,36,5,2,1,A,F,Q,V,0,0,0,05.0.6.0,win,12217,0:24:57,10,10,axcpt,22,trialselector,0,175,25,25,25,100,150,37,5,2,1,A,F,Q,V,0,0,0,05.0.6.0,win,12217,0:24:57,10,10,axcpt,22,AY,0,175,25,25,25,100,150,38,6,2,1,A,S,G,O,A,0,0,12005.0.6.0,win,12217,0:24:57,10,10,axcpt,22,ISI_probe,0,175,25,25,25,100,150,39,6,2,1,A,S,G,O,0,0,0,05.0.6.0,win,12217,0:24:57,10,10,axcpt,22,trialselector,0,175,25,25,25,100,150,40,6,1,1,A,S,G,O,0,0,0,05.0.6.0,win,12217,0:24:57,10,10,axcpt,22,AX,0,175,25,25,25,100,150,41,7,1,1,A,R,L,X,A,0,0,12005.0.6.0,win,12217,0:24:57,10,10,axcpt,22,ISI_probe,0,175,25,25,25,100,150,42,7,1,1,A,R,L,X,0,0,0,05.0.6.0,win,12217,0:24:57,10,10,axcpt,22,trialselector,0,175,25,25,25,100,150,43,7,1,1,A,R,L,X,0,0,0,05.0.6.0,win,12217,0:24:57,10,10,axcpt,22,AX,0,175,25,25,25,100,150,44,8,1,1,A,U,S,X,A,0,0,12005.0.6.0,win,12217,0:24:57,10,10,axcpt,22,ISI_probe,0,175,25,25,25,100,150,45,8,1,1,A,U,S,X,0,0,0,05.0.6.0,win,12217,0:24:57,10,10,axcpt,22,trialselector,0,175,25,25,25,100,150,46,8,1,1,A,U,S,X,0,0,0,05.0.6.0,win,12217,0:24:57,10,10,axcpt,22,AX,0,175,25,25,25,100,150,47,9,1,1,A,V,C,X,A,0,0,12005.0.6.0,win,12217,0:24:57,10,10,axcpt,22,ISI_probe,0,175,25,25,25,100,150,48,9,1,1,A,V,C,X,0,0,0,05.0.6.0,win,12217,0:24:57,10,10,axcpt,22,trialselector,0,175,25,25,25,100,150,49,9,3,1,A,V,C,X,0,0,0,05.0.6.0,win,12217,0:24:57,10,10,axcpt,22,BX,0,175,25,25,25,100,150,50,10,3,1,L,S,C,X,L,0,0,12005.0.6.0,win,12217,0:24:57,10,10,axcpt,22,ISI_probe,0,175,25,25,25,100,150,51,10,3,1,L,S,C,X,0,0,0,05.0.6.0,win,12217,0:24:57,10,10,axcpt,22,trialselector,0,175,25,25,25,100,150,52,10,1,1,L,S,C,X,0,0,0,05.0.6.0,win,12217,0:24:57,10,10,axcpt,22,AX,0,175,25,25,25,100,150,53,11,1,1,A,D,M,X,A,0,0,12005.0.6.0,win,12217,0:24:57,10,10,axcpt,22,ISI_probe,0,175,25,25,25,100,150,54,11,1,1,A,D,M,X,0,0,0,05.0.6.0,win,12217,0:24:57,10,10,axcpt,22,trialselector,0,175,25,25,25,100,150,55,11,1,1,A,D,M,X,0,0,0,05.0.6.0,win,12217,0:24:57,10,10,axcpt,22,AX,0,175,25,25,25,100,150,56,12,1,1,A,B,N,X,A,0,0,12005.0.6.0,win,12217,0:24:57,10,10,axcpt,22,ISI_probe,0,175,25,25,25,100,150,57,12,1,1,A,B,N,X,0,0,0,05.0.6.0,win,12217,0:24:57,10,10,axcpt,22,trialselector,0,175,25,25,25,100,150,58,12,1,1,A,B,N,X,0,0,0,05.0.6.0,win,12217,0:24:57,10,10,axcpt,22,AX,0,175,25,25,25,100,150,59,13,1,1,A,O,V,X,A,0,0,12005.0.6.0,win,12217,0:24:57,10,10,axcpt,22,ISI_probe,0,175,25,25,25,100,150,60,13,1,1,A,O,V,X,0,0,0,05.0.6.0,win,12217,0:24:57,10,10,axcpt,22,trialselector,0,175,25,25,25,100,150,61,13,1,1,A,O,V,X,0,0,0,05.0.6.0,win,12217,0:24:57,10,10,axcpt,22,AX,0,175,25,25,25,100,150,62,14,1,1,A,Z,L,X,A,0,0,12005.0.6.0,win,12217,0:24:57,10,10,axcpt,22,ISI_probe,0,175,25,25,25,100,150,63,14,1,1,A,Z,L,X,0,0,0,05.0.6.0,win,12217,0:24:57,10,10,axcpt,22,trialselector,0,175,25,25,25,100,150,64,14,1,1,A,Z,L,X,0,0,0,05.0.6.0,win,12217,0:24:57,10,10,axcpt,22,AX,0,175,25,25,25,100,150,65,15,1,1,A,C,P,X,A,0,0,12005.0.6.0,win,12217,0:24:57,10,10,axcpt,22,ISI_probe,0,175,25,25,25,100,150,66,15,1,1,A,C,P,X,0,0,0,05.0.6.0,win,12217,0:24:57,10,10,axcpt,22,trialselector,0,175,25,25,25,100,150,67,15,1,1,A,C,P,X,0,0,0,05.0.6.0,win,12217,0:24:57,10,10,axcpt,22,AX,0,175,25,25,25,100,150,68,16,1,1,A,C,O,X,A,0,0,12005.0.6.0,win,12217,0:24:57,10,10,axcpt,22,ISI_probe,0,175,25,25,25,100,150,69,16,1,1,A,C,O,X,0,0,0,05.0.6.0,win,12217,0:24:57,10,10,axcpt,22,trialselector,0,175,25,25,25,100,150,70,16,1,1,A,C,O,X,0,0,0,05.0.6.0,win,12217,0:24:57,10,10,axcpt,22,AX,0,175,25,25,25,100,150,71,17,1,1,A,E,B,X,A,0,0,12005.0.6.0,win,12217,0:24:57,10,10,axcpt,22,ISI_probe,0,175,25,25,25,100,150,72,17,1,1,A,E,B,X,0,0,0,05.0.6.0,win,12217,0:24:57,10,10,axcpt,22,trialselector,0,175,25,25,25,100,150,73,17,1,1,A,E,B,X,0,0,0,05.0.6.0,win,12217,0:24:57,10,10,axcpt,22,AX,0,175,25,25,25,100,150,74,18,1,1,A,Q,J,X,A,0,0,12005.0.6.0,win,12217,0:24:57,10,10,axcpt,22,ISI_probe,0,175,25,25,25,100,150,75,18,1,1,A,Q,J,X,0,0,0,05.0.6.0,win,12217,0:24:57,10,10,axcpt,22,trialselector,0,175,25,25,25,100,150,76,18,1,1,A,Q,J,X,0,0,0,05.0.6.0,win,12217,0:24:57,10,10,axcpt,22,AX,0,175,25,25,25,100,150,77,19,1,1,A,Z,H,X,A,0,0,12005.0.6.0,win,12217,0:24:57,10,10,axcpt,22,ISI_probe,0,175,25,25,25,100,150,78,19,1,1,A,Z,H,X,0,0,0,05.0.6.0,win,12217,0:24:57,10,10,axcpt,22,trialselector,0,175,25,25,25,100,150,79,19,1,1,A,Z,H,X,0,0,0,05.0.6.0,win,12217,0:24:57,10,10,axcpt,22,AX,0,175,25,25,25,100,150,80,20,1,1,A,F,T,X,A,0,0,12005.0.6.0,win,12217,0:24:57,10,10,axcpt,22,ISI_probe,0,175,25,25,25,100,150,81,20,1,1,A,F,T,X,0,0,0,05.0.6.0,win,12217,0:24:57,10,10,axcpt,22,trialselector,0,175,25,25,25,100,150,82,20,1,1,A,F,T,X,0,0,0,05.0.6.0,win,12217,0:24:57,10,10,axcpt,22,AX,0,175,25,25,25,100,150,83,21,1,1,A,T,J,X,A,0,0,12005.0.6.0,win,12217,0:24:57,10,10,axcpt,22,ISI_probe,0,175,25,25,25,100,150,84,21,1,1,A,T,J,X,0,0,0,05.0.6.0,win,12217,0:24:57,10,10,axcpt,22,trialselector,0,175,25,25,25,100,150,85,21,1,1,A,T,J,X,0,0,0,05.0.6.0,win,12217,0:24:57,10,10,axcpt,22,AX,0,175,25,25,25,100,150,86,22,1,1,A,U,J,X,A,0,0,12005.0.6.0,win,12217,0:24:57,10,10,axcpt,22,ISI_probe,0,175,25,25,25,100,150,87,22,1,1,A,U,J,X,0,0,0,05.0.6.0,win,12217,0:24:57,10,10,axcpt,22,trialselector,0,175,25,25,25,100,150,88,22,4,1,A,U,J,X,0,0,0,05.0.6.0,win,12217,0:24:57,10,10,axcpt,22,BY,0,175,25,25,25,100,150,89,23,4,1,P,R,Q,H,P,0,0,12005.0.6.0,win,12217,0:24:57,10,10,axcpt,22,ISI_probe,0,175,25,25,25,100,150,90,23,4,1,P,R,Q,H,0,0,0,05.0.6.0,win,12217,0:24:57,10,10,axcpt,22,trialselector,0,175,25,25,25,100,150,91,23,1,1,P,R,Q,H,0,0,0,05.0.6.0,win,12217,0:24:57,10,10,axcpt,22,AX,0,175,25,25,25,100,150,92,24,1,1,A,J,D,X,A,0,0,12005.0.6.0,win,12217,0:24:57,10,10,axcpt,22,ISI_probe,0,175,25,25,25,100,150,93,24,1,1,A,J,D,X,0,0,0,05.0.6.0,win,12217,0:24:57,10,10,axcpt,22,trialselector,0,175,25,25,25,100,150,94,24,3,1,A,J,D,X,0,0,0,05.0.6.0,win,12217,0:24:57,10,10,axcpt,22,BX,0,175,25,25,25,100,150,95,25,3,1,P,Z,J,X,P,0,0,12005.0.6.0,win,12217,0:24:57,10,10,axcpt,22,ISI_probe,0,175,25,25,25,100,150,96,25,3,1,P,Z,J,X,0,0,0,05.0.6.0,win,12217,0:24:57,10,10,axcpt,22,trialselector,0,175,25,25,25,100,150,97,25,3,1,P,Z,J,X,0,0,0,05.0.6.0,win,12217,0:24:57,10,10,axcpt,22,BX,0,175,25,25,25,100,150,98,26,3,1,Q,O,D,X,Q,0,0,12005.0.6.0,win,12217,0:24:57,10,10,axcpt,22,ISI_probe,0,175,25,25,25,100,150,99,26,3,1,Q,O,D,X,0,0,0,05.0.6.0,win,12217,0:24:57,10,10,axcpt,22,trialselector,0,175,25,25,25,100,150,100,26,1,1,Q,O,D,X,0,0,0,05.0.6.0,win,12217,0:24:57,10,10,axcpt,22,AX,0,175,25,25,25,100,150,101,27,1,1,A,L,V,X,A,0,0,12005.0.6.0,win,12217,0:24:57,10,10,axcpt,22,ISI_probe,0,175,25,25,25,100,150,102,27,1,1,A,L,V,X,0,0,0,05.0.6.0,win,12217,0:24:57,10,10,axcpt,22,trialselector,0,175,25,25,25,100,150,103,27,3,1,A,L,V,X,0,0,0,05.0.6.0,win,12217,0:24:57,10,10,axcpt,22,BX,0,175,25,25,25,100,150,104,28,3,1,J,G,Z,X,J,0,0,12005.0.6.0,win,12217,0:24:57,10,10,axcpt,22,ISI_probe,0,175,25,25,25,100,150,105,28,3,1,J,G,Z,X,0,0,0,05.0.6.0,win,12217,0:24:57,10,10,axcpt,22,trialselector,0,175,25,25,25,100,150,106,28,1,1,J,G,Z,X,0,0,0,05.0.6.0,win,12217,0:24:57,10,10,axcpt,22,AX,0,175,25,25,25,100,150,107,29,1,1,A,G,D,X,A,0,0,12005.0.6.0,win,12217,0:24:57,10,10,axcpt,22,ISI_probe,0,175,25,25,25,100,150,108,29,1,1,A,G,D,X,0,0,0,05.0.6.0,win,12217,0:24:57,10,10,axcpt,22,trialselector,0,175,25,25,25,100,150,109,29,1,1,A,G,D,X,0,0,0,05.0.6.0,win,12217,0:24:57,10,10,axcpt,22,AX,0,175,25,25,25,100,150,110,30,1,1,A,N,B,X,A,0,0,12005.0.6.0,win,12217,0:24:57,10,10,axcpt,22,ISI_probe,0,175,25,25,25,100,150,111,30,1,1,A,N,B,X,0,0,0,05.0.6.0,win,12217,0:24:57,10,10,axcpt,22,trialselector,0,175,25,25,25,100,150,112,30,1,1,A,N,B,X,0,0,0,05.0.6.0,win,12217,0:24:57,10,10,axcpt,22,AX,0,175,25,25,25,100,150,113,31,1,1,A,G,F,X,A,0,0,12005.0.6.0,win,12217,0:24:57,10,10,axcpt,22,ISI_probe,0,175,25,25,25,100,150,114,31,1,1,A,G,F,X,0,0,0,05.0.6.0,win,12217,0:24:57,10,10,axcpt,22,trialselector,0,175,25,25,25,100,150,115,31,1,1,A,G,F,X,0,0,0,05.0.6.0,win,12217,0:24:57,10,10,axcpt,22,AX,0,175,25,25,25,100,150,116,32,1,1,A,L,I,X,A,0,0,12005.0.6.0,win,12217,0:24:57,10,10,axcpt,22,ISI_probe,0,175,25,25,25,100,150,117,32,1,1,A,L,I,X,0,0,0,05.0.6.0,win,12217,0:24:57,10,10,axcpt,22,trialselector,0,175,25,25,25,100,150,118,32,1,1,A,L,I,X,0,0,0,05.0.6.0,win,12217,0:24:57,10,10,axcpt,22,AX,0,175,25,25,25,100,150,119,33,1,1,A,C,S,X,A,0,0,12005.0.6.0,win,12217,0:24:57,10,10,axcpt,22,ISI_probe,0,175,25,25,25,100,150,120,33,1,1,A,C,S,X,0,0,0,05.0.6.0,win,12217,0:24:57,10,10,axcpt,22,trialselector,0,175,25,25,25,100,150,121,33,1,1,A,C,S,X,0,0,0,05.0.6.0,win,12217,0:24:57,10,10,axcpt,22,AX,0,175,25,25,25,100,150,122,34,1,1,A,P,E,X,A,0,0,12005.0.6.0,win,12217,0:24:57,10,10,axcpt,22,ISI_probe,0,175,25,25,25,100,150,123,34,1,1,A,P,E,X,0,0,0,05.0.6.0,win,12217,0:24:57,10,10,axcpt,22,trialselector,0,175,25,25,25,100,150,124,34,3,1,A,P,E,X,0,0,0,05.0.6.0,win,12217,0:24:57,10,10,axcpt,22,BX,0,175,25,25,25,100,150,125,35,3,1,F,I,R,X,F,0,0,12005.0.6.0,win,12217,0:24:57,10,10,axcpt,22,ISI_probe,0,175,25,25,25,100,150,126,35,3,1,F,I,R,X,0,0,0,05.0.6.0,win,12217,0:24:57,10,10,axcpt,22,trialselector,0,175,25,25,25,100,150,127,35,4,1,F,I,R,X,0,0,0,05.0.6.0,win,12217,0:24:57,10,10,axcpt,22,BY,0,175,25,25,25,100,150,128,36,4,1,H,S,D,B,H,0,0,12005.0.6.0,win,12217,0:24:57,10,10,axcpt,22,ISI_probe,0,175,25,25,25,100,150,129,36,4,1,H,S,D,B,0,0,0,05.0.6.0,win,12217,0:24:57,10,10,axcpt,22,trialselector,0,175,25,25,25,100,150,130,36,1,1,H,S,D,B,0,0,0,05.0.6.0,win,12217,0:24:57,10,10,axcpt,22,AX,0,175,25,25,25,100,150,131,37,1,1,A,O,Z,X,A,0,0,12005.0.6.0,win,12217,0:24:57,10,10,axcpt,22,ISI_probe,0,175,25,25,25,100,150,132,37,1,1,A,O,Z,X,0,0,0,05.0.6.0,win,12217,0:24:57,10,10,axcpt,22,trialselector,0,175,25,25,25,100,150,133,37,1,1,A,O,Z,X,0,0,0,05.0.6.0,win,12217,0:24:57,10,10,axcpt,22,AX,0,175,25,25,25,100,150,134,38,1,1,A,N,C,X,A,0,0,12005.0.6.0,win,12217,0:24:57,10,10,axcpt,22,ISI_probe,0,175,25,25,25,100,150,135,38,1,1,A,N,C,X,0,0,0,05.0.6.0,win,12217,0:24:57,10,10,axcpt,22,trialselector,0,175,25,25,25,100,150,136,38,1,1,A,N,C,X,0,0,0,05.0.6.0,win,12217,0:24:57,10,10,axcpt,22,AX,0,175,25,25,25,100,150,137,39,1,1,A,R,J,X,A,0,0,12005.0.6.0,win,12217,0:24:57,10,10,axcpt,22,ISI_probe,0,175,25,25,25,100,150,138,39,1,1,A,R,J,X,0,0,0,05.0.6.0,win,12217,0:24:57,10,10,axcpt,22,trialselector,0,175,25,25,25,100,150,139,39,1,1,A,R,J,X,0,0,0,05.0.6.0,win,12217,0:24:57,10,10,axcpt,22,AX,0,175,25,25,25,100,150,140,40,1,1,A,H,R,X,A,0,0,12005.0.6.0,win,12217,0:24:57,10,10,axcpt,22,ISI_probe,0,175,25,25,25,100,150,141,40,1,1,A,H,R,X,0,0,0,05.0.6.0,win,12217,0:24:57,10,10,axcpt,22,trialselector,0,175,25,25,25,100,150,142,40,1,1,A,H,R,X,0,0,0,05.0.6.0,win,12217,0:24:57,10,10,axcpt,22,AX,0,175,25,25,25,100,150,143,41,1,1,A,F,G,X,A,0,0,12005.0.6.0,win,12217,0:24:57,10,10,axcpt,22,ISI_probe,0,175,25,25,25,100,150,144,41,1,1,A,F,G,X,0,0,0,05.0.6.0,win,12217,0:24:57,10,10,axcpt,22,trialselector,0,175,25,25,25,100,150,145,41,3,1,A,F,G,X,0,0,0,05.0.6.0,win,12217,0:24:57,10,10,axcpt,22,BX,0,175,25,25,25,100,150,146,42,3,1,P,H,O,X,P,0,0,12005.0.6.0,win,12217,0:24:57,10,10,axcpt,22,ISI_probe,0,175,25,25,25,100,150,147,42,3,1,P,H,O,X,0,0,0,05.0.6.0,win,12217,0:24:57,10,10,axcpt,22,trialselector,0,175,25,25,25,100,150,148,42,1,1,P,H,O,X,0,0,0,05.0.6.0,win,12217,0:24:57,10,10,axcpt,22,AX,0,175,25,25,25,100,150,149,43,1,1,A,C,E,X,A,0,0,12005.0.6.0,win,12217,0:24:57,10,10,axcpt,22,ISI_probe,0,175,25,25,25,100,150,150,43,1,1,A,C,E,X,0,0,0,05.0.6.0,win,12217,0:24:57,10,10,axcpt,22,trialselector,0,175,25,25,25,100,150,151,43,2,1,A,C,E,X,0,0,0,05.0.6.0,win,12217,0:24:57,10,10,axcpt,22,AY,0,175,25,25,25,100,150,152,44,2,1,A,U,Q,S,A,0,0,12005.0.6.0,win,12217,0:24:57,10,10,axcpt,22,ISI_probe,0,175,25,25,25,100,150,153,44,2,1,A,U,Q,S,0,0,0,05.0.6.0,win,12217,0:24:57,10,10,axcpt,22,trialselector,0,175,25,25,25,100,150,154,44,1,1,A,U,Q,S,0,0,0,05.0.6.0,win,12217,0:24:57,10,10,axcpt,22,AX,0,175,25,25,25,100,150,155,45,1,1,A,N,J,X,A,0,0,12005.0.6.0,win,12217,0:24:57,10,10,axcpt,22,ISI_probe,0,175,25,25,25,100,150,156,45,1,1,A,N,J,X,0,0,0,05.0.6.0,win,12217,0:24:57,10,10,axcpt,22,trialselector,0,175,25,25,25,100,150,157,45,1,1,A,N,J,X,0,0,0,05.0.6.0,win,12217,0:24:57,10,10,axcpt,22,AX,0,175,25,25,25,100,150,158,46,1,1,A,L,M,X,A,0,0,12005.0.6.0,win,12217,0:24:57,10,10,axcpt,22,ISI_probe,0,175,25,25,25,100,150,159,46,1,1,A,L,M,X,0,0,0,05.0.6.0,win,12217,0:24:57,10,10,axcpt,22,trialselector,0,175,25,25,25,100,150,160,46,2,1,A,L,M,X,0,0,0,05.0.6.0,win,12217,0:24:57,10,10,axcpt,22,AY,0,175,25,25,25,100,150,161,47,2,1,A,I,M,G,A,0,0,12005.0.6.0,win,12217,0:24:57,10,10,axcpt,22,ISI_probe,0,175,25,25,25,100,150,162,47,2,1,A,I,M,G,0,0,0,05.0.6.0,win,12217,0:24:57,10,10,axcpt,22,trialselector,0,175,25,25,25,100,150,163,47,1,1,A,I,M,G,0,0,0,05.0.6.0,win,12217,0:24:57,10,10,axcpt,22,AX,0,175,25,25,25,100,150,164,48,1,1,A,N,G,X,A,0,0,12005.0.6.0,win,12217,0:24:57,10,10,axcpt,22,ISI_probe,0,175,25,25,25,100,150,165,48,1,1,A,N,G,X,0,0,0,05.0.6.0,win,12217,0:24:57,10,10,axcpt,22,trialselector,0,175,25,25,25,100,150,166,48,1,1,A,N,G,X,0,0,0,05.0.6.0,win,12217,0:24:57,10,10,axcpt,22,AX,0,175,25,25,25,100,150,167,49,1,1,A,L,V,X,A,0,0,12005.0.6.0,win,12217,0:24:57,10,10,axcpt,22,ISI_probe,0,175,25,25,25,100,150,168,49,1,1,A,L,V,X,0,0,0,05.0.6.0,win,12217,0:24:57,10,10,axcpt,22,trialselector,0,175,25,25,25,100,150,169,49,4,1,A,L,V,X,0,0,0,05.0.6.0,win,12217,0:24:57,10,10,axcpt,22,BY,0,175,25,25,25,100,150,170,50,4,1,Z,D,P,J,Z,0,0,12005.0.6.0,win,12217,0:24:57,10,10,axcpt,22,ISI_probe,0,175,25,25,25,100,150,171,50,4,1,Z,D,P,J,0,0,0,05.0.6.0,win,12217,0:24:57,10,10,axcpt,22,trialselector,0,175,25,25,25,100,150,172,50,1,1,Z,D,P,J,0,0,0,05.0.6.0,win,12217,0:24:57,10,10,axcpt,22,AX,0,175,25,25,25,100,150,173,51,1,1,A,S,Z,X,A,0,0,12005.0.6.0,win,12217,0:24:57,10,10,axcpt,22,ISI_probe,0,175,25,25,25,100,150,174,51,1,1,A,S,Z,X,0,0,0,05.0.6.0,win,12217,0:24:57,10,10,axcpt,22,trialselector,0,175,25,25,25,100,150,175,51,4,1,A,S,Z,X,0,0,0,05.0.6.0,win,12217,0:24:57,10,10,axcpt,22,BY,0,175,25,25,25,100,150,176,52,4,1,M,E,O,Z,M,0,0,12005.0.6.0,win,12217,0:24:57,10,10,axcpt,22,ISI_probe,0,175,25,25,25,100,150,177,52,4,1,M,E,O,Z,0,0,0,05.0.6.0,win,12217,0:24:57,10,10,axcpt,22,trialselector,0,175,25,25,25,100,150,178,52,1,1,M,E,O,Z,0,0,0,05.0.6.0,win,12217,0:24:57,10,10,axcpt,22,AX,0,175,25,25,25,100,150,179,53,1,1,A,U,D,X,A,0,0,12005.0.6.0,win,12217,0:24:57,10,10,axcpt,22,ISI_probe,0,175,25,25,25,100,150,180,53,1,1,A,U,D,X,0,0,0,05.0.6.0,win,12217,0:24:57,10,10,axcpt,22,trialselector,0,175,25,25,25,100,150,181,53,1,1,A,U,D,X,0,0,0,05.0.6.0,win,12217,0:24:57,10,10,axcpt,22,AX,0,175,25,25,25,100,150,182,54,1,1,A,R,U,X,A,0,0,12005.0.6.0,win,12217,0:24:57,10,10,axcpt,22,ISI_probe,0,175,25,25,25,100,150,183,54,1,1,A,R,U,X,0,0,0,05.0.6.0,win,12217,0:24:57,10,10,axcpt,22,trialselector,0,175,25,25,25,100,150,184,54,1,1,A,R,U,X,0,0,0,05.0.6.0,win,12217,0:24:57,10,10,axcpt,22,AX,0,175,25,25,25,100,150,185,55,1,1,A,B,D,X,A,0,0,12005.0.6.0,win,12217,0:24:57,10,10,axcpt,22,ISI_probe,0,175,25,25,25,100,150,186,55,1,1,A,B,D,X,0,0,0,05.0.6.0,win,12217,0:24:57,10,10,axcpt,22,trialselector,0,175,25,25,25,100,150,187,55,1,1,A,B,D,X,0,0,0,05.0.6.0,win,12217,0:24:57,10,10,axcpt,22,AX,0,175,25,25,25,100,150,188,56,1,1,A,S,B,X,A,0,0,12005.0.6.0,win,12217,0:24:57,10,10,axcpt,22,ISI_probe,0,175,25,25,25,100,150,189,56,1,1,A,S,B,X,0,0,0,05.0.6.0,win,12217,0:24:57,10,10,axcpt,22,trialselector,0,175,25,25,25,100,150,190,56,1,1,A,S,B,X,0,0,0,05.0.6.0,win,12217,0:24:57,10,10,axcpt,22,AX,0,175,25,25,25,100,150,191,57,1,1,A,J,F,X,A,0,0,12005.0.6.0,win,12217,0:24:57,10,10,axcpt,22,ISI_probe,0,175,25,25,25,100,150,192,57,1,1,A,J,F,X,0,0,0,05.0.6.0,win,12217,0:24:57,10,10,axcpt,22,trialselector,0,175,25,25,25,100,150,193,57,3,1,A,J,F,X,0,0,0,05.0.6.0,win,12217,0:24:57,10,10,axcpt,22,BX,0,175,25,25,25,100,150,194,58,3,1,P,J,M,X,P,0,0,12005.0.6.0,win,12217,0:24:57,10,10,axcpt,22,ISI_probe,0,175,25,25,25,100,150,195,58,3,1,P,J,M,X,0,0,0,05.0.6.0,win,12217,0:24:57,10,10,axcpt,22,trialselector,0,175,25,25,25,100,150,196,58,4,1,P,J,M,X,0,0,0,05.0.6.0,win,12217,0:24:57,10,10,axcpt,22,BY,0,175,25,25,25,100,150,197,59,4,1,N,O,M,Q,N,0,0,12005.0.6.0,win,12217,0:24:57,10,10,axcpt,22,ISI_probe,0,175,25,25,25,100,150,198,59,4,1,N,O,M,Q,0,0,0,05.0.6.0,win,12217,0:24:57,10,10,axcpt,22,trialselector,0,175,25,25,25,100,150,199,59,1,1,N,O,M,Q,0,0,0,05.0.6.0,win,12217,0:24:57,10,10,axcpt,22,AX,0,175,25,25,25,100,150,200,60,1,1,A,E,R,X,A,0,0,12005.0.6.0,win,12217,0:24:57,10,10,axcpt,22,ISI_probe,0,175,25,25,25,100,150,201,60,1,1,A,E,R,X,0,0,0,05.0.6.0,win,12217,0:24:57,10,10,axcpt,22,trialselector,0,175,25,25,25,100,150,202,60,1,1,A,E,R,X,0,0,0,05.0.6.0,win,12217,0:24:57,10,10,axcpt,22,AX,0,175,25,25,25,100,150,203,61,1,1,A,M,U,X,A,0,0,12005.0.6.0,win,12217,0:24:57,10,10,axcpt,22,ISI_probe,0,175,25,25,25,100,150,204,61,1,1,A,M,U,X,0,0,0,05.0.6.0,win,12217,0:24:57,10,10,axcpt,22,trialselector,0,175,25,25,25,100,150,205,61,1,1,A,M,U,X,0,0,0,05.0.6.0,win,12217,0:24:57,10,10,axcpt,22,AX,0,175,25,25,25,100,150,206,62,1,1,A,V,D,X,A,0,0,12005.0.6.0,win,12217,0:24:57,10,10,axcpt,22,ISI_probe,0,175,25,25,25,100,150,207,62,1,1,A,V,D,X,0,0,0,05.0.6.0,win,12217,0:24:57,10,10,axcpt,22,trialselector,0,175,25,25,25,100,150,208,62,1,1,A,V,D,X,0,0,0,05.0.6.0,win,12217,0:24:57,10,10,axcpt,22,AX,0,175,25,25,25,100,150,209,63,1,1,A,N,L,X,A,0,0,12005.0.6.0,win,12217,0:24:57,10,10,axcpt,22,ISI_probe,0,175,25,25,25,100,150,210,63,1,1,A,N,L,X,0,0,0,05.0.6.0,win,12217,0:24:57,10,10,axcpt,22,trialselector,0,175,25,25,25,100,150,211,63,1,1,A,N,L,X,0,0,0,05.0.6.0,win,12217,0:24:57,10,10,axcpt,22,AX,0,175,25,25,25,100,150,212,64,1,1,A,E,B,X,A,0,0,12005.0.6.0,win,12217,0:24:57,10,10,axcpt,22,ISI_probe,0,175,25,25,25,100,150,213,64,1,1,A,E,B,X,0,0,0,05.0.6.0,win,12217,0:24:57,10,10,axcpt,22,trialselector,0,175,25,25,25,100,150,214,64,1,1,A,E,B,X,0,0,0,05.0.6.0,win,12217,0:24:57,10,10,axcpt,22,AX,0,175,25,25,25,100,150,215,65,1,1,A,N,H,X,A,0,0,12005.0.6.0,win,12217,0:24:57,10,10,axcpt,22,ISI_probe,0,175,25,25,25,100,150,216,65,1,1,A,N,H,X,0,0,0,05.0.6.0,win,12217,0:24:57,10,10,axcpt,22,trialselector,0,175,25,25,25,100,150,217,65,1,1,A,N,H,X,0,0,0,05.0.6.0,win,12217,0:24:57,10,10,axcpt,22,AX,0,175,25,25,25,100,150,218,66,1,1,A,P,T,X,A,0,0,12005.0.6.0,win,12217,0:24:57,10,10,axcpt,22,ISI_probe,0,175,25,25,25,100,150,219,66,1,1,A,P,T,X,0,0,0,05.0.6.0,win,12217,0:24:57,10,10,axcpt,22,trialselector,0,175,25,25,25,100,150,220,66,1,1,A,P,T,X,0,0,0,05.0.6.0,win,12217,0:24:57,10,10,axcpt,22,AX,0,175,25,25,25,100,150,221,67,1,1,A,F,E,X,A,0,0,12005.0.6.0,win,12217,0:24:57,10,10,axcpt,22,ISI_probe,0,175,25,25,25,100,150,222,67,1,1,A,F,E,X,0,0,0,05.0.6.0,win,12217,0:24:57,10,10,axcpt,22,trialselector,0,175,25,25,25,100,150,223,67,3,1,A,F,E,X,0,0,0,05.0.6.0,win,12217,0:24:57,10,10,axcpt,22,BX,0,175,25,25,25,100,150,224,68,3,1,N,F,R,X,N,0,0,12005.0.6.0,win,12217,0:24:57,10,10,axcpt,22,ISI_probe,0,175,25,25,25,100,150,225,68,3,1,N,F,R,X,0,0,0,05.0.6.0,win,12217,0:24:57,10,10,axcpt,22,trialselector,0,175,25,25,25,100,150,226,68,4,1,N,F,R,X,0,0,0,05.0.6.0,win,12217,0:24:57,10,10,axcpt,22,BY,0,175,25,25,25,100,150,227,69,4,1,R,G,C,F,R,0,0,12005.0.6.0,win,12217,0:24:57,10,10,axcpt,22,ISI_probe,0,175,25,25,25,100,150,228,69,4,1,R,G,C,F,0,0,0,05.0.6.0,win,12217,0:24:57,10,10,axcpt,22,trialselector,0,175,25,25,25,100,150,229,69,4,1,R,G,C,F,0,0,0,05.0.6.0,win,12217,0:24:57,10,10,axcpt,22,BY,0,175,25,25,25,100,150,230,70,4,1,U,C,F,J,U,0,0,12005.0.6.0,win,12217,0:24:57,10,10,axcpt,22,ISI_probe,0,175,25,25,25,100,150,231,70,4,1,U,C,F,J,0,0,0,05.0.6.0,win,12217,0:24:57,10,10,axcpt,22,trialselector,0,175,25,25,25,100,150,232,70,1,1,U,C,F,J,0,0,0,05.0.6.0,win,12217,0:24:57,10,10,axcpt,22,AX,0,175,25,25,25,100,150,233,71,1,1,A,J,U,X,A,0,0,12005.0.6.0,win,12217,0:24:57,10,10,axcpt,22,ISI_probe,0,175,25,25,25,100,150,234,71,1,1,A,J,U,X,0,0,0,05.0.6.0,win,12217,0:24:57,10,10,axcpt,22,trialselector,0,175,25,25,25,100,150,235,71,1,1,A,J,U,X,0,0,0,05.0.6.0,win,12217,0:24:57,10,10,axcpt,22,AX,0,175,25,25,25,100,150,236,72,1,1,A,B,U,X,A,0,0,12005.0.6.0,win,12217,0:24:57,10,10,axcpt,22,ISI_probe,0,175,25,25,25,100,150,237,72,1,1,A,B,U,X,0,0,0,05.0.6.0,win,12217,0:24:57,10,10,axcpt,22,trialselector,0,175,25,25,25,100,150,238,72,4,1,A,B,U,X,0,0,0,05.0.6.0,win,12217,0:24:57,10,10,axcpt,22,BY,0,175,25,25,25,100,150,239,73,4,1,Q,L,C,P,Q,0,0,12005.0.6.0,win,12217,0:24:57,10,10,axcpt,22,ISI_probe,0,175,25,25,25,100,150,240,73,4,1,Q,L,C,P,0,0,0,05.0.6.0,win,12217,0:24:57,10,10,axcpt,22,trialselector,0,175,25,25,25,100,150,241,73,1,1,Q,L,C,P,0,0,0,05.0.6.0,win,12217,0:24:57,10,10,axcpt,22,AX,0,175,25,25,25,100,150,242,74,1,1,A,V,F,X,A,0,0,12005.0.6.0,win,12217,0:24:57,10,10,axcpt,22,ISI_probe,0,175,25,25,25,100,150,243,74,1,1,A,V,F,X,0,0,0,05.0.6.0,win,12217,0:24:57,10,10,axcpt,22,trialselector,0,175,25,25,25,100,150,244,74,3,1,A,V,F,X,0,0,0,05.0.6.0,win,12217,0:24:57,10,10,axcpt,22,BX,0,175,25,25,25,100,150,245,75,3,1,C,B,L,X,C,0,0,12005.0.6.0,win,12217,0:24:57,10,10,axcpt,22,ISI_probe,0,175,25,25,25,100,150,246,75,3,1,C,B,L,X,0,0,0,05.0.6.0,win,12217,0:24:57,10,10,axcpt,22,trialselector,0,175,25,25,25,100,150,247,75,1,1,C,B,L,X,0,0,0,05.0.6.0,win,12217,0:24:57,10,10,axcpt,22,AX,0,175,25,25,25,100,150,248,76,1,1,A,B,U,X,A,0,0,12005.0.6.0,win,12217,0:24:57,10,10,axcpt,22,ISI_probe,0,175,25,25,25,100,150,249,76,1,1,A,B,U,X,0,0,0,05.0.6.0,win,12217,0:24:57,10,10,axcpt,22,trialselector,0,175,25,25,25,100,150,250,76,2,1,A,B,U,X,0,0,0,05.0.6.0,win,12217,0:24:57,10,10,axcpt,22,AY,0,175,25,25,25,100,150,251,77,2,1,A,T,F,E,A,0,0,12005.0.6.0,win,12217,0:24:57,10,10,axcpt,22,ISI_probe,0,175,25,25,25,100,150,252,77,2,1,A,T,F,E,0,0,0,05.0.6.0,win,12217,0:24:57,10,10,axcpt,22,trialselector,0,175,25,25,25,100,150,253,77,1,1,A,T,F,E,0,0,0,05.0.6.0,win,12217,0:24:57,10,10,axcpt,22,AX,0,175,25,25,25,100,150,254,78,1,1,A,V,U,X,A,0,0,12005.0.6.0,win,12217,0:24:57,10,10,axcpt,22,ISI_probe,0,175,25,25,25,100,150,255,78,1,1,A,V,U,X,0,0,0,05.0.6.0,win,12217,0:24:57,10,10,axcpt,22,trialselector,0,175,25,25,25,100,150,256,78,1,1,A,V,U,X,0,0,0,05.0.6.0,win,12217,0:24:57,10,10,axcpt,22,AX,0,175,25,25,25,100,150,257,79,1,1,A,L,Z,X,A,0,0,12005.0.6.0,win,12217,0:24:57,10,10,axcpt,22,ISI_probe,0,175,25,25,25,100,150,258,79,1,1,A,L,Z,X,0,0,0,05.0.6.0,win,12217,0:24:57,10,10,axcpt,22,trialselector,0,175,25,25,25,100,150,259,79,1,1,A,L,Z,X,0,0,0,05.0.6.0,win,12217,0:24:57,10,10,axcpt,22,AX,0,175,25,25,25,100,150,260,80,1,1,A,I,R,X,A,0,0,12005.0.6.0,win,12217,0:24:57,10,10,axcpt,22,ISI_probe,0,175,25,25,25,100,150,261,80,1,1,A,I,R,X,0,0,0,05.0.6.0,win,12217,0:24:57,10,10,axcpt,22,trialselector,0,175,25,25,25,100,150,262,80,1,1,A,I,R,X,0,0,0,05.0.6.0,win,12217,0:24:57,10,10,axcpt,22,AX,0,175,25,25,25,100,150,263,81,1,1,A,O,H,X,A,0,0,12005.0.6.0,win,12217,0:24:57,10,10,axcpt,22,ISI_probe,0,175,25,25,25,100,150,264,81,1,1,A,O,H,X,0,0,0,05.0.6.0,win,12217,0:24:57,10,10,axcpt,22,trialselector,0,175,25,25,25,100,150,265,81,2,1,A,O,H,X,0,0,0,05.0.6.0,win,12217,0:24:57,10,10,axcpt,22,AY,0,175,25,25,25,100,150,266,82,2,1,A,O,V,M,A,0,0,12005.0.6.0,win,12217,0:24:57,10,10,axcpt,22,ISI_probe,0,175,25,25,25,100,150,267,82,2,1,A,O,V,M,0,0,0,05.0.6.0,win,12217,0:24:57,10,10,axcpt,22,trialselector,0,175,25,25,25,100,150,268,82,2,1,A,O,V,M,0,0,0,05.0.6.0,win,12217,0:24:57,10,10,axcpt,22,AY,0,175,25,25,25,100,150,269,83,2,1,A,C,U,R,A,0,0,12005.0.6.0,win,12217,0:24:57,10,10,axcpt,22,ISI_probe,0,175,25,25,25,100,150,270,83,2,1,A,C,U,R,0,0,0,05.0.6.0,win,12217,0:24:57,10,10,axcpt,22,trialselector,0,175,25,25,25,100,150,271,83,4,1,A,C,U,R,0,0,0,05.0.6.0,win,12217,0:24:57,10,10,axcpt,22,BY,0,175,25,25,25,100,150,272,84,4,1,E,O,L,C,E,0,0,12005.0.6.0,win,12217,0:24:57,10,10,axcpt,22,ISI_probe,0,175,25,25,25,100,150,273,84,4,1,E,O,L,C,0,0,0,05.0.6.0,win,12217,0:24:57,10,10,axcpt,22,trialselector,0,175,25,25,25,100,150,274,84,1,1,E,O,L,C,0,0,0,05.0.6.0,win,12217,0:24:57,10,10,axcpt,22,AX,0,175,25,25,25,100,150,275,85,1,1,A,C,R,X,A,0,0,12005.0.6.0,win,12217,0:24:57,10,10,axcpt,22,ISI_probe,0,175,25,25,25,100,150,276,85,1,1,A,C,R,X,0,0,0,05.0.6.0,win,12217,0:24:57,10,10,axcpt,22,trialselector,0,175,25,25,25,100,150,277,85,1,1,A,C,R,X,0,0,0,05.0.6.0,win,12217,0:24:57,10,10,axcpt,22,AX,0,175,25,25,25,100,150,278,86,1,1,A,L,T,X,A,0,0,12005.0.6.0,win,12217,0:24:57,10,10,axcpt,22,ISI_probe,0,175,25,25,25,100,150,279,86,1,1,A,L,T,X,0,0,0,05.0.6.0,win,12217,0:24:57,10,10,axcpt,22,trialselector,0,175,25,25,25,100,150,280,86,1,1,A,L,T,X,0,0,0,05.0.6.0,win,12217,0:24:57,10,10,axcpt,22,AX,0,175,25,25,25,100,150,281,87,1,1,A,V,N,X,A,0,0,12005.0.6.0,win,12217,0:24:57,10,10,axcpt,22,ISI_probe,0,175,25,25,25,100,150,282,87,1,1,A,V,N,X,0,0,0,05.0.6.0,win,12217,0:24:57,10,10,axcpt,22,trialselector,0,175,25,25,25,100,150,283,87,1,1,A,V,N,X,0,0,0,05.0.6.0,win,12217,0:24:57,10,10,axcpt,22,AX,0,175,25,25,25,100,150,284,88,1,1,A,Q,Z,X,A,0,0,12005.0.6.0,win,12217,0:24:57,10,10,axcpt,22,ISI_probe,0,175,25,25,25,100,150,285,88,1,1,A,Q,Z,X,0,0,0,05.0.6.0,win,12217,0:24:57,10,10,axcpt,22,trialselector,0,175,25,25,25,100,150,286,88,1,1,A,Q,Z,X,0,0,0,05.0.6.0,win,12217,0:24:57,10,10,axcpt,22,AX,0,175,25,25,25,100,150,287,89,1,1,A,E,H,X,A,0,0,12005.0.6.0,win,12217,0:24:57,10,10,axcpt,22,ISI_probe,0,175,25,25,25,100,150,288,89,1,1,A,E,H,X,0,0,0,05.0.6.0,win,12217,0:24:57,10,10,axcpt,22,trialselector,0,175,25,25,25,100,150,289,89,3,1,A,E,H,X,0,0,0,05.0.6.0,win,12217,0:24:57,10,10,axcpt,22,BX,0,175,25,25,25,100,150,290,90,3,1,D,E,M,X,D,0,0,12005.0.6.0,win,12217,0:24:57,10,10,axcpt,22,ISI_probe,0,175,25,25,25,100,150,291,90,3,1,D,E,M,X,0,0,0,05.0.6.0,win,12217,0:24:57,10,10,axcpt,22,trialselector,0,175,25,25,25,100,150,292,90,1,1,D,E,M,X,0,0,0,05.0.6.0,win,12217,0:24:57,10,10,axcpt,22,AX,0,175,25,25,25,100,150,293,91,1,1,A,T,C,X,A,0,0,12005.0.6.0,win,12217,0:24:57,10,10,axcpt,22,ISI_probe,0,175,25,25,25,100,150,294,91,1,1,A,T,C,X,0,0,0,05.0.6.0,win,12217,0:24:57,10,10,axcpt,22,trialselector,0,175,25,25,25,100,150,295,91,1,1,A,T,C,X,0,0,0,05.0.6.0,win,12217,0:24:57,10,10,axcpt,22,AX,0,175,25,25,25,100,150,296,92,1,1,A,M,J,X,A,0,0,12005.0.6.0,win,12217,0:24:57,10,10,axcpt,22,ISI_probe,0,175,25,25,25,100,150,297,92,1,1,A,M,J,X,0,0,0,05.0.6.0,win,12217,0:24:57,10,10,axcpt,22,trialselector,0,175,25,25,25,100,150,298,92,1,1,A,M,J,X,0,0,0,05.0.6.0,win,12217,0:24:57,10,10,axcpt,22,AX,0,175,25,25,25,100,150,299,93,1,1,A,R,S,X,A,0,0,12005.0.6.0,win,12217,0:24:57,10,10,axcpt,22,ISI_probe,0,175,25,25,25,100,150,300,93,1,1,A,R,S,X,0,0,0,05.0.6.0,win,12217,0:24:57,10,10,axcpt,22,trialselector,0,175,25,25,25,100,150,301,93,1,1,A,R,S,X,0,0,0,05.0.6.0,win,12217,0:24:57,10,10,axcpt,22,AX,0,175,25,25,25,100,150,302,94,1,1,A,H,F,X,A,0,0,12005.0.6.0,win,12217,0:24:57,10,10,axcpt,22,ISI_probe,0,175,25,25,25,100,150,303,94,1,1,A,H,F,X,0,0,0,05.0.6.0,win,12217,0:24:57,10,10,axcpt,22,trialselector,0,175,25,25,25,100,150,304,94,1,1,A,H,F,X,0,0,0,05.0.6.0,win,12217,0:24:57,10,10,axcpt,22,AX,0,175,25,25,25,100,150,305,95,1,1,A,V,H,X,A,0,0,12005.0.6.0,win,12217,0:24:57,10,10,axcpt,22,ISI_probe,0,175,25,25,25,100,150,306,95,1,1,A,V,H,X,0,0,0,05.0.6.0,win,12217,0:24:57,10,10,axcpt,22,trialselector,0,175,25,25,25,100,150,307,95,1,1,A,V,H,X,0,0,0,05.0.6.0,win,12217,0:24:57,10,10,axcpt,22,AX,0,175,25,25,25,100,150,308,96,1,1,A,G,D,X,A,0,0,12005.0.6.0,win,12217,0:24:57,10,10,axcpt,22,ISI_probe,0,175,25,25,25,100,150,309,96,1,1,A,G,D,X,0,0,0,05.0.6.0,win,12217,0:24:57,10,10,axcpt,22,trialselector,0,175,25,25,25,100,150,310,96,1,1,A,G,D,X,0,0,0,05.0.6.0,win,12217,0:24:57,10,10,axcpt,22,AX,0,175,25,25,25,100,150,311,97,1,1,A,C,U,X,A,0,0,12005.0.6.0,win,12217,0:24:57,10,10,axcpt,22,ISI_probe,0,175,25,25,25,100,150,312,97,1,1,A,C,U,X,0,0,0,05.0.6.0,win,12217,0:24:57,10,10,axcpt,22,trialselector,0,175,25,25,25,100,150,313,97,2,1,A,C,U,X,0,0,0,05.0.6.0,win,12217,0:24:57,10,10,axcpt,22,AY,0,175,25,25,25,100,150,314,98,2,1,A,E,P,H,A,0,0,12005.0.6.0,win,12217,0:24:57,10,10,axcpt,22,ISI_probe,0,175,25,25,25,100,150,315,98,2,1,A,E,P,H,0,0,0,05.0.6.0,win,12217,0:24:57,10,10,axcpt,22,trialselector,0,175,25,25,25,100,150,316,98,1,1,A,E,P,H,0,0,0,05.0.6.0,win,12217,0:24:57,10,10,axcpt,22,AX,0,175,25,25,25,100,150,317,99,1,1,A,N,Z,X,A,0,0,12005.0.6.0,win,12217,0:24:57,10,10,axcpt,22,ISI_probe,0,175,25,25,25,100,150,318,99,1,1,A,N,Z,X,0,0,0,05.0.6.0,win,12217,0:24:57,10,10,axcpt,22,trialselector,0,175,25,25,25,100,150,319,99,1,1,A,N,Z,X,0,0,0,05.0.6.0,win,12217,0:24:57,10,10,axcpt,22,AX,0,175,25,25,25,100,150,320,100,1,1,A,I,E,X,A,0,0,12005.0.6.0,win,12217,0:24:57,10,10,axcpt,22,ISI_probe,0,175,25,25,25,100,150,321,100,1,1,A,I,E,X,0,0,0,05.0.6.0,win,12217,0:24:57,10,10,axcpt,22,trialselector,0,175,25,25,25,100,150,322,100,4,1,A,I,E,X,0,0,0,05.0.6.0,win,12217,0:24:57,10,10,axcpt,22,BY,0,175,25,25,25,100,150,323,101,4,2,S,I,Q,M,S,0,0,12005.0.6.0,win,12217,0:24:57,10,10,axcpt,22,ISI_probe,0,175,25,25,25,100,150,324,101,4,2,S,I,Q,M,0,0,0,05.0.6.0,win,12217,0:24:57,10,10,axcpt,22,trialselector,0,175,25,25,25,100,150,325,101,1,2,S,I,Q,M,0,0,0,05.0.6.0,win,12217,0:24:57,10,10,axcpt,22,AX,0,175,25,25,25,100,150,326,102,1,2,A,C,B,X,A,0,0,12005.0.6.0,win,12217,0:24:57,10,10,axcpt,22,ISI_probe,0,175,25,25,25,100,150,327,102,1,2,A,C,B,X,0,0,0,05.0.6.0,win,12217,0:24:57,10,10,axcpt,22,trialselector,0,175,25,25,25,100,150,328,102,1,2,A,C,B,X,0,0,0,05.0.6.0,win,12217,0:24:57,10,10,axcpt,22,AX,0,175,25,25,25,100,150,329,103,1,2,A,B,C,X,A,0,0,12005.0.6.0,win,12217,0:24:57,10,10,axcpt,22,ISI_probe,0,175,25,25,25,100,150,330,103,1,2,A,B,C,X,0,0,0,05.0.6.0,win,12217,0:24:57,10,10,axcpt,22,trialselector,0,175,25,25,25,100,150,331,103,1,2,A,B,C,X,0,0,0,05.0.6.0,win,12217,0:24:57,10,10,axcpt,22,AX,0,175,25,25,25,100,150,332,104,1,2,A,V,E,X,A,0,0,12005.0.6.0,win,12217,0:24:57,10,10,axcpt,22,ISI_probe,0,175,25,25,25,100,150,333,104,1,2,A,V,E,X,0,0,0,05.0.6.0,win,12217,0:24:57,10,10,axcpt,22,trialselector,0,175,25,25,25,100,150,334,104,1,2,A,V,E,X,0,0,0,05.0.6.0,win,12217,0:24:57,10,10,axcpt,22,AX,0,175,25,25,25,100,150,335,105,1,2,A,T,F,X,A,0,0,12005.0.6.0,win,12217,0:24:57,10,10,axcpt,22,ISI_probe,0,175,25,25,25,100,150,336,105,1,2,A,T,F,X,0,0,0,05.0.6.0,win,12217,0:24:57,10,10,axcpt,22,trialselector,0,175,25,25,25,100,150,337,105,1,2,A,T,F,X,0,0,0,05.0.6.0,win,12217,0:24:57,10,10,axcpt,22,AX,0,175,25,25,25,100,150,338,106,1,2,A,H,Z,X,A,0,0,12005.0.6.0,win,12217,0:24:57,10,10,axcpt,22,ISI_probe,0,175,25,25,25,100,150,339,106,1,2,A,H,Z,X,0,0,0,05.0.6.0,win,12217,0:24:57,10,10,axcpt,22,trialselector,0,175,25,25,25,100,150,340,106,2,2,A,H,Z,X,0,0,0,05.0.6.0,win,12217,0:24:57,10,10,axcpt,22,AY,0,175,25,25,25,100,150,341,107,2,2,A,F,J,I,A,0,0,12005.0.6.0,win,12217,0:24:57,10,10,axcpt,22,ISI_probe,0,175,25,25,25,100,150,342,107,2,2,A,F,J,I,0,0,0,05.0.6.0,win,12217,0:24:57,10,10,axcpt,22,trialselector,0,175,25,25,25,100,150,343,107,4,2,A,F,J,I,0,0,0,05.0.6.0,win,12217,0:24:57,10,10,axcpt,22,BY,0,175,25,25,25,100,150,344,108,4,2,G,D,H,F,G,0,0,12005.0.6.0,win,12217,0:24:57,10,10,axcpt,22,ISI_probe,0,175,25,25,25,100,150,345,108,4,2,G,D,H,F,0,0,0,05.0.6.0,win,12217,0:24:57,10,10,axcpt,22,trialselector,0,175,25,25,25,100,150,346,108,2,2,G,D,H,F,0,0,0,05.0.6.0,win,12217,0:24:57,10,10,axcpt,22,AY,0,175,25,25,25,100,150,347,109,2,2,A,F,S,H,A,0,0,12005.0.6.0,win,12217,0:24:57,10,10,axcpt,22,ISI_probe,0,175,25,25,25,100,150,348,109,2,2,A,F,S,H,0,0,0,05.0.6.0,win,12217,0:24:57,10,10,axcpt,22,trialselector,0,175,25,25,25,100,150,349,109,1,2,A,F,S,H,0,0,0,05.0.6.0,win,12217,0:24:57,10,10,axcpt,22,AX,0,175,25,25,25,100,150,350,110,1,2,A,L,H,X,A,0,0,12005.0.6.0,win,12217,0:24:57,10,10,axcpt,22,ISI_probe,0,175,25,25,25,100,150,351,110,1,2,A,L,H,X,0,0,0,05.0.6.0,win,12217,0:24:57,10,10,axcpt,22,trialselector,0,175,25,25,25,100,150,352,110,1,2,A,L,H,X,0,0,0,05.0.6.0,win,12217,0:24:57,10,10,axcpt,22,AX,0,175,25,25,25,100,150,353,111,1,2,A,H,G,X,A,0,0,12005.0.6.0,win,12217,0:24:57,10,10,axcpt,22,ISI_probe,0,175,25,25,25,100,150,354,111,1,2,A,H,G,X,0,0,0,05.0.6.0,win,12217,0:24:57,10,10,axcpt,22,trialselector,0,175,25,25,25,100,150,355,111,1,2,A,H,G,X,0,0,0,05.0.6.0,win,12217,0:24:57,10,10,axcpt,22,AX,0,175,25,25,25,100,150,356,112,1,2,A,I,C,X,A,0,0,12005.0.6.0,win,12217,0:24:57,10,10,axcpt,22,ISI_probe,0,175,25,25,25,100,150,357,112,1,2,A,I,C,X,0,0,0,05.0.6.0,win,12217,0:24:57,10,10,axcpt,22,trialselector,0,175,25,25,25,100,150,358,112,1,2,A,I,C,X,0,0,0,05.0.6.0,win,12217,0:24:57,10,10,axcpt,22,AX,0,175,25,25,25,100,150,359,113,1,2,A,Z,D,X,A,0,0,12005.0.6.0,win,12217,0:24:57,10,10,axcpt,22,ISI_probe,0,175,25,25,25,100,150,360,113,1,2,A,Z,D,X,0,0,0,05.0.6.0,win,12217,0:24:57,10,10,axcpt,22,trialselector,0,175,25,25,25,100,150,361,113,3,2,A,Z,D,X,0,0,0,05.0.6.0,win,12217,0:24:57,10,10,axcpt,22,BX,0,175,25,25,25,100,150,362,114,3,2,U,Q,C,X,U,0,0,12005.0.6.0,win,12217,0:24:57,10,10,axcpt,22,ISI_probe,0,175,25,25,25,100,150,363,114,3,2,U,Q,C,X,0,0,0,05.0.6.0,win,12217,0:24:57,10,10,axcpt,22,trialselector,0,175,25,25,25,100,150,364,114,1,2,U,Q,C,X,0,0,0,05.0.6.0,win,12217,0:24:57,10,10,axcpt,22,AX,0,175,25,25,25,100,150,365,115,1,2,A,D,S,X,A,0,0,12005.0.6.0,win,12217,0:24:57,10,10,axcpt,22,ISI_probe,0,175,25,25,25,100,150,366,115,1,2,A,D,S,X,0,0,0,05.0.6.0,win,12217,0:24:57,10,10,axcpt,22,trialselector,0,175,25,25,25,100,150,367,115,1,2,A,D,S,X,0,0,0,05.0.6.0,win,12217,0:24:57,10,10,axcpt,22,AX,0,175,25,25,25,100,150,368,116,1,2,A,O,S,X,A,0,0,12005.0.6.0,win,12217,0:24:57,10,10,axcpt,22,ISI_probe,0,175,25,25,25,100,150,369,116,1,2,A,O,S,X,0,0,0,05.0.6.0,win,12217,0:24:57,10,10,axcpt,22,trialselector,0,175,25,25,25,100,150,370,116,1,2,A,O,S,X,0,0,0,05.0.6.0,win,12217,0:24:57,10,10,axcpt,22,AX,0,175,25,25,25,100,150,371,117,1,2,A,R,S,X,A,0,0,12005.0.6.0,win,12217,0:24:57,10,10,axcpt,22,ISI_probe,0,175,25,25,25,100,150,372,117,1,2,A,R,S,X,0,0,0,05.0.6.0,win,12217,0:24:57,10,10,axcpt,22,trialselector,0,175,25,25,25,100,150,373,117,1,2,A,R,S,X,0,0,0,05.0.6.0,win,12217,0:24:57,10,10,axcpt,22,AX,0,175,25,25,25,100,150,374,118,1,2,A,U,S,X,A,0,0,12005.0.6.0,win,12217,0:24:57,10,10,axcpt,22,ISI_probe,0,175,25,25,25,100,150,375,118,1,2,A,U,S,X,0,0,0,05.0.6.0,win,12217,0:24:57,10,10,axcpt,22,trialselector,0,175,25,25,25,100,150,376,118,1,2,A,U,S,X,0,0,0,05.0.6.0,win,12217,0:24:57,10,10,axcpt,22,AX,0,175,25,25,25,100,150,377,119,1,2,A,I,Z,X,A,0,0,12005.0.6.0,win,12217,0:24:57,10,10,axcpt,22,ISI_probe,0,175,25,25,25,100,150,378,119,1,2,A,I,Z,X,0,0,0,05.0.6.0,win,12217,0:24:57,10,10,axcpt,22,trialselector,0,175,25,25,25,100,150,379,119,1,2,A,I,Z,X,0,0,0,05.0.6.0,win,12217,0:24:57,10,10,axcpt,22,AX,0,175,25,25,25,100,150,380,120,1,2,A,T,R,X,A,0,0,12005.0.6.0,win,12217,0:24:57,10,10,axcpt,22,ISI_probe,0,175,25,25,25,100,150,381,120,1,2,A,T,R,X,0,0,0,05.0.6.0,win,12217,0:24:57,10,10,axcpt,22,trialselector,0,175,25,25,25,100,150,382,120,1,2,A,T,R,X,0,0,0,05.0.6.0,win,12217,0:24:57,10,10,axcpt,22,AX,0,175,25,25,25,100,150,383,121,1,2,A,I,B,X,A,0,0,12005.0.6.0,win,12217,0:24:57,10,10,axcpt,22,ISI_probe,0,175,25,25,25,100,150,384,121,1,2,A,I,B,X,0,0,0,05.0.6.0,win,12217,0:24:57,10,10,axcpt,22,trialselector,0,175,25,25,25,100,150,385,121,1,2,A,I,B,X,0,0,0,05.0.6.0,win,12217,0:24:57,10,10,axcpt,22,AX,0,175,25,25,25,100,150,386,122,1,2,A,R,U,X,A,0,0,12005.0.6.0,win,12217,0:24:57,10,10,axcpt,22,ISI_probe,0,175,25,25,25,100,150,387,122,1,2,A,R,U,X,0,0,0,05.0.6.0,win,12217,0:24:57,10,10,axcpt,22,trialselector,0,175,25,25,25,100,150,388,122,1,2,A,R,U,X,0,0,0,05.0.6.0,win,12217,0:24:57,10,10,axcpt,22,AX,0,175,25,25,25,100,150,389,123,1,2,A,C,U,X,A,0,0,12005.0.6.0,win,12217,0:24:57,10,10,axcpt,22,ISI_probe,0,175,25,25,25,100,150,390,123,1,2,A,C,U,X,0,0,0,05.0.6.0,win,12217,0:24:57,10,10,axcpt,22,trialselector,0,175,25,25,25,100,150,391,123,1,2,A,C,U,X,0,0,0,05.0.6.0,win,12217,0:24:57,10,10,axcpt,22,AX,0,175,25,25,25,100,150,392,124,1,2,A,S,I,X,A,0,0,12005.0.6.0,win,12217,0:24:57,10,10,axcpt,22,ISI_probe,0,175,25,25,25,100,150,393,124,1,2,A,S,I,X,0,0,0,05.0.6.0,win,12217,0:24:57,10,10,axcpt,22,trialselector,0,175,25,25,25,100,150,394,124,1,2,A,S,I,X,0,0,0,05.0.6.0,win,12217,0:24:57,10,10,axcpt,22,AX,0,175,25,25,25,100,150,395,125,1,2,A,M,F,X,A,0,0,12005.0.6.0,win,12217,0:24:57,10,10,axcpt,22,ISI_probe,0,175,25,25,25,100,150,396,125,1,2,A,M,F,X,0,0,0,05.0.6.0,win,12217,0:24:57,10,10,axcpt,22,trialselector,0,175,25,25,25,100,150,397,125,1,2,A,M,F,X,0,0,0,05.0.6.0,win,12217,0:24:57,10,10,axcpt,22,AX,0,175,25,25,25,100,150,398,126,1,2,A,V,R,X,A,0,0,12005.0.6.0,win,12217,0:24:57,10,10,axcpt,22,ISI_probe,0,175,25,25,25,100,150,399,126,1,2,A,V,R,X,0,0,0,05.0.6.0,win,12217,0:24:57,10,10,axcpt,22,trialselector,0,175,25,25,25,100,150,400,126,4,2,A,V,R,X,0,0,0,05.0.6.0,win,12217,0:24:57,10,10,axcpt,22,BY,0,175,25,25,25,100,150,401,127,4,2,U,F,J,Q,U,0,0,12005.0.6.0,win,12217,0:24:57,10,10,axcpt,22,ISI_probe,0,175,25,25,25,100,150,402,127,4,2,U,F,J,Q,0,0,0,05.0.6.0,win,12217,0:24:57,10,10,axcpt,22,trialselector,0,175,25,25,25,100,150,403,127,1,2,U,F,J,Q,0,0,0,05.0.6.0,win,12217,0:24:57,10,10,axcpt,22,AX,0,175,25,25,25,100,150,404,128,1,2,A,Z,N,X,A,0,0,12005.0.6.0,win,12217,0:24:57,10,10,axcpt,22,ISI_probe,0,175,25,25,25,100,150,405,128,1,2,A,Z,N,X,0,0,0,05.0.6.0,win,12217,0:24:57,10,10,axcpt,22,trialselector,0,175,25,25,25,100,150,406,128,1,2,A,Z,N,X,0,0,0,05.0.6.0,win,12217,0:24:57,10,10,axcpt,22,AX,0,175,25,25,25,100,150,407,129,1,2,A,Z,G,X,A,0,0,12005.0.6.0,win,12217,0:24:57,10,10,axcpt,22,ISI_probe,0,175,25,25,25,100,150,408,129,1,2,A,Z,G,X,0,0,0,05.0.6.0,win,12217,0:24:57,10,10,axcpt,22,trialselector,0,175,25,25,25,100,150,409,129,1,2,A,Z,G,X,0,0,0,05.0.6.0,win,12217,0:24:57,10,10,axcpt,22,AX,0,175,25,25,25,100,150,410,130,1,2,A,N,J,X,A,0,0,12005.0.6.0,win,12217,0:24:57,10,10,axcpt,22,ISI_probe,0,175,25,25,25,100,150,411,130,1,2,A,N,J,X,0,0,0,05.0.6.0,win,12217,0:24:57,10,10,axcpt,22,trialselector,0,175,25,25,25,100,150,412,130,4,2,A,N,J,X,0,0,0,05.0.6.0,win,12217,0:24:57,10,10,axcpt,22,BY,0,175,25,25,25,100,150,413,131,4,2,L,P,Z,M,L,0,0,12005.0.6.0,win,12217,0:24:57,10,10,axcpt,22,ISI_probe,0,175,25,25,25,100,150,414,131,4,2,L,P,Z,M,0,0,0,05.0.6.0,win,12217,0:24:57,10,10,axcpt,22,trialselector,0,175,25,25,25,100,150,415,131,1,2,L,P,Z,M,0,0,0,05.0.6.0,win,12217,0:24:57,10,10,axcpt,22,AX,0,175,25,25,25,100,150,416,132,1,2,A,S,V,X,A,0,0,12005.0.6.0,win,12217,0:24:57,10,10,axcpt,22,ISI_probe,0,175,25,25,25,100,150,417,132,1,2,A,S,V,X,0,0,0,05.0.6.0,win,12217,0:24:57,10,10,axcpt,22,trialselector,0,175,25,25,25,100,150,418,132,1,2,A,S,V,X,0,0,0,05.0.6.0,win,12217,0:24:57,10,10,axcpt,22,AX,0,175,25,25,25,100,150,419,133,1,2,A,M,T,X,A,0,0,12005.0.6.0,win,12217,0:24:57,10,10,axcpt,22,ISI_probe,0,175,25,25,25,100,150,420,133,1,2,A,M,T,X,0,0,0,05.0.6.0,win,12217,0:24:57,10,10,axcpt,22,trialselector,0,175,25,25,25,100,150,421,133,2,2,A,M,T,X,0,0,0,05.0.6.0,win,12217,0:24:57,10,10,axcpt,22,AY,0,175,25,25,25,100,150,422,134,2,2,A,D,E,Q,A,0,0,12005.0.6.0,win,12217,0:24:57,10,10,axcpt,22,ISI_probe,0,175,25,25,25,100,150,423,134,2,2,A,D,E,Q,0,0,0,05.0.6.0,win,12217,0:24:57,10,10,axcpt,22,trialselector,0,175,25,25,25,100,150,424,134,1,2,A,D,E,Q,0,0,0,05.0.6.0,win,12217,0:24:57,10,10,axcpt,22,AX,0,175,25,25,25,100,150,425,135,1,2,A,I,S,X,A,0,0,12005.0.6.0,win,12217,0:24:57,10,10,axcpt,22,ISI_probe,0,175,25,25,25,100,150,426,135,1,2,A,I,S,X,0,0,0,05.0.6.0,win,12217,0:24:57,10,10,axcpt,22,trialselector,0,175,25,25,25,100,150,427,135,1,2,A,I,S,X,0,0,0,05.0.6.0,win,12217,0:24:57,10,10,axcpt,22,AX,0,175,25,25,25,100,150,428,136,1,2,A,C,M,X,A,0,0,12005.0.6.0,win,12217,0:24:57,10,10,axcpt,22,ISI_probe,0,175,25,25,25,100,150,429,136,1,2,A,C,M,X,0,0,0,05.0.6.0,win,12217,0:24:57,10,10,axcpt,22,trialselector,0,175,25,25,25,100,150,430,136,1,2,A,C,M,X,0,0,0,05.0.6.0,win,12217,0:24:57,10,10,axcpt,22,AX,0,175,25,25,25,100,150,431,137,1,2,A,B,F,X,A,0,0,12005.0.6.0,win,12217,0:24:57,10,10,axcpt,22,ISI_probe,0,175,25,25,25,100,150,432,137,1,2,A,B,F,X,0,0,0,05.0.6.0,win,12217,0:24:57,10,10,axcpt,22,trialselector,0,175,25,25,25,100,150,433,137,3,2,A,B,F,X,0,0,0,05.0.6.0,win,12217,0:24:57,10,10,axcpt,22,BX,0,175,25,25,25,100,150,434,138,3,2,Q,R,B,X,Q,0,0,12005.0.6.0,win,12217,0:24:57,10,10,axcpt,22,ISI_probe,0,175,25,25,25,100,150,435,138,3,2,Q,R,B,X,0,0,0,05.0.6.0,win,12217,0:24:57,10,10,axcpt,22,trialselector,0,175,25,25,25,100,150,436,138,1,2,Q,R,B,X,0,0,0,05.0.6.0,win,12217,0:24:57,10,10,axcpt,22,AX,0,175,25,25,25,100,150,437,139,1,2,A,O,R,X,A,0,0,12005.0.6.0,win,12217,0:24:57,10,10,axcpt,22,ISI_probe,0,175,25,25,25,100,150,438,139,1,2,A,O,R,X,0,0,0,05.0.6.0,win,12217,0:24:57,10,10,axcpt,22,trialselector,0,175,25,25,25,100,150,439,139,1,2,A,O,R,X,0,0,0,05.0.6.0,win,12217,0:24:57,10,10,axcpt,22,AX,0,175,25,25,25,100,150,440,140,1,2,A,M,G,X,A,0,0,12005.0.6.0,win,12217,0:24:57,10,10,axcpt,22,ISI_probe,0,175,25,25,25,100,150,441,140,1,2,A,M,G,X,0,0,0,05.0.6.0,win,12217,0:24:57,10,10,axcpt,22,trialselector,0,175,25,25,25,100,150,442,140,1,2,A,M,G,X,0,0,0,05.0.6.0,win,12217,0:24:57,10,10,axcpt,22,AX,0,175,25,25,25,100,150,443,141,1,2,A,U,Q,X,A,0,0,12005.0.6.0,win,12217,0:24:57,10,10,axcpt,22,ISI_probe,0,175,25,25,25,100,150,444,141,1,2,A,U,Q,X,0,0,0,05.0.6.0,win,12217,0:24:57,10,10,axcpt,22,trialselector,0,175,25,25,25,100,150,445,141,1,2,A,U,Q,X,0,0,0,05.0.6.0,win,12217,0:24:57,10,10,axcpt,22,AX,0,175,25,25,25,100,150,446,142,1,2,A,M,I,X,A,0,0,12005.0.6.0,win,12217,0:24:57,10,10,axcpt,22,ISI_probe,0,175,25,25,25,100,150,447,142,1,2,A,M,I,X,0,0,0,05.0.6.0,win,12217,0:24:57,10,10,axcpt,22,trialselector,0,175,25,25,25,100,150,448,142,2,2,A,M,I,X,0,0,0,05.0.6.0,win,12217,0:24:57,10,10,axcpt,22,AY,0,175,25,25,25,100,150,449,143,2,2,A,N,G,F,A,0,0,12005.0.6.0,win,12217,0:24:57,10,10,axcpt,22,ISI_probe,0,175,25,25,25,100,150,450,143,2,2,A,N,G,F,0,0,0,05.0.6.0,win,12217,0:24:57,10,10,axcpt,22,trialselector,0,175,25,25,25,100,150,451,143,1,2,A,N,G,F,0,0,0,05.0.6.0,win,12217,0:24:57,10,10,axcpt,22,AX,0,175,25,25,25,100,150,452,144,1,2,A,F,I,X,A,0,0,12005.0.6.0,win,12217,0:24:57,10,10,axcpt,22,ISI_probe,0,175,25,25,25,100,150,453,144,1,2,A,F,I,X,0,0,0,05.0.6.0,win,12217,0:24:57,10,10,axcpt,22,trialselector,0,175,25,25,25,100,150,454,144,2,2,A,F,I,X,0,0,0,05.0.6.0,win,12217,0:24:57,10,10,axcpt,22,AY,0,175,25,25,25,100,150,455,145,2,2,A,I,M,U,A,0,0,12005.0.6.0,win,12217,0:24:57,10,10,axcpt,22,ISI_probe,0,175,25,25,25,100,150,456,145,2,2,A,I,M,U,0,0,0,05.0.6.0,win,12217,0:24:57,10,10,axcpt,22,trialselector,0,175,25,25,25,100,150,457,145,1,2,A,I,M,U,0,0,0,05.0.6.0,win,12217,0:24:57,10,10,axcpt,22,AX,0,175,25,25,25,100,150,458,146,1,2,A,J,F,X,A,0,0,12005.0.6.0,win,12217,0:24:57,10,10,axcpt,22,ISI_probe,0,175,25,25,25,100,150,459,146,1,2,A,J,F,X,0,0,0,05.0.6.0,win,12217,0:24:57,10,10,axcpt,22,trialselector,0,175,25,25,25,100,150,460,146,1,2,A,J,F,X,0,0,0,05.0.6.0,win,12217,0:24:57,10,10,axcpt,22,AX,0,175,25,25,25,100,150,461,147,1,2,A,V,O,X,A,0,0,12005.0.6.0,win,12217,0:24:57,10,10,axcpt,22,ISI_probe,0,175,25,25,25,100,150,462,147,1,2,A,V,O,X,0,0,0,05.0.6.0,win,12217,0:24:57,10,10,axcpt,22,trialselector,0,175,25,25,25,100,150,463,147,1,2,A,V,O,X,0,0,0,05.0.6.0,win,12217,0:24:57,10,10,axcpt,22,AX,0,175,25,25,25,100,150,464,148,1,2,A,V,P,X,A,0,0,12005.0.6.0,win,12217,0:24:57,10,10,axcpt,22,ISI_probe,0,175,25,25,25,100,150,465,148,1,2,A,V,P,X,0,0,0,05.0.6.0,win,12217,0:24:57,10,10,axcpt,22,trialselector,0,175,25,25,25,100,150,466,148,1,2,A,V,P,X,0,0,0,05.0.6.0,win,12217,0:24:57,10,10,axcpt,22,AX,0,175,25,25,25,100,150,467,149,1,2,A,T,P,X,A,0,0,12005.0.6.0,win,12217,0:24:57,10,10,axcpt,22,ISI_probe,0,175,25,25,25,100,150,468,149,1,2,A,T,P,X,0,0,0,05.0.6.0,win,12217,0:24:57,10,10,axcpt,22,trialselector,0,175,25,25,25,100,150,469,149,1,2,A,T,P,X,0,0,0,05.0.6.0,win,12217,0:24:57,10,10,axcpt,22,AX,0,175,25,25,25,100,150,470,150,1,2,A,U,T,X,A,0,0,12005.0.6.0,win,12217,0:24:57,10,10,axcpt,22,ISI_probe,0,175,25,25,25,100,150,471,150,1,2,A,U,T,X,0,0,0,05.0.6.0,win,12217,0:24:57,10,10,axcpt,22,trialselector,0,175,25,25,25,100,150,472,150,1,2,A,U,T,X,0,0,0,05.0.6.0,win,12217,0:24:57,10,10,axcpt,22,AX,0,175,25,25,25,100,150,473,151,1,3,A,U,T,X,A,0,0,12005.0.6.0,win,12217,0:24:57,10,10,axcpt,22,ISI_probe,0,175,25,25,25,100,150,474,151,1,3,A,U,T,X,0,0,0,05.0.6.0,win,12217,0:24:57,10,10,axcpt,22,trialselector,0,175,25,25,25,100,150,475,151,3,3,A,U,T,X,0,0,0,05.0.6.0,win,12217,0:24:57,10,10,axcpt,22,BX,0,175,25,25,25,100,150,476,152,3,3,G,R,V,X,G,0,0,12005.0.6.0,win,12217,0:24:57,10,10,axcpt,22,ISI_probe,0,175,25,25,25,100,150,477,152,3,3,G,R,V,X,0,0,0,05.0.6.0,win,12217,0:24:57,10,10,axcpt,22,trialselector,0,175,25,25,25,100,150,478,152,1,3,G,R,V,X,0,0,0,05.0.6.0,win,12217,0:24:57,10,10,axcpt,22,AX,0,175,25,25,25,100,150,479,153,1,3,A,U,R,X,A,0,0,12005.0.6.0,win,12217,0:24:57,10,10,axcpt,22,ISI_probe,0,175,25,25,25,100,150,480,153,1,3,A,U,R,X,0,0,0,05.0.6.0,win,12217,0:24:57,10,10,axcpt,22,trialselector,0,175,25,25,25,100,150,481,153,3,3,A,U,R,X,0,0,0,05.0.6.0,win,12217,0:24:57,10,10,axcpt,22,BX,0,175,25,25,25,100,150,482,154,3,3,G,J,P,X,G,0,0,12005.0.6.0,win,12217,0:24:57,10,10,axcpt,22,ISI_probe,0,175,25,25,25,100,150,483,154,3,3,G,J,P,X,0,0,0,05.0.6.0,win,12217,0:24:57,10,10,axcpt,22,trialselector,0,175,25,25,25,100,150,484,154,3,3,G,J,P,X,0,0,0,05.0.6.0,win,12217,0:24:57,10,10,axcpt,22,BX,0,175,25,25,25,100,150,485,155,3,3,G,F,Q,X,G,0,0,12005.0.6.0,win,12217,0:24:57,10,10,axcpt,22,ISI_probe,0,175,25,25,25,100,150,486,155,3,3,G,F,Q,X,0,0,0,05.0.6.0,win,12217,0:24:57,10,10,axcpt,22,trialselector,0,175,25,25,25,100,150,487,155,3,3,G,F,Q,X,0,0,0,05.0.6.0,win,12217,0:24:57,10,10,axcpt,22,BX,0,175,25,25,25,100,150,488,156,3,3,Z,G,Q,X,Z,0,0,12005.0.6.0,win,12217,0:24:57,10,10,axcpt,22,ISI_probe,0,175,25,25,25,100,150,489,156,3,3,Z,G,Q,X,0,0,0,05.0.6.0,win,12217,0:24:57,10,10,axcpt,22,trialselector,0,175,25,25,25,100,150,490,156,1,3,Z,G,Q,X,0,0,0,05.0.6.0,win,12217,0:24:57,10,10,axcpt,22,AX,0,175,25,25,25,100,150,491,157,1,3,A,T,F,X,A,0,0,12005.0.6.0,win,12217,0:24:57,10,10,axcpt,22,ISI_probe,0,175,25,25,25,100,150,492,157,1,3,A,T,F,X,0,0,0,05.0.6.0,win,12217,0:24:57,10,10,axcpt,22,trialselector,0,175,25,25,25,100,150,493,157,1,3,A,T,F,X,0,0,0,05.0.6.0,win,12217,0:24:57,10,10,axcpt,22,AX,0,175,25,25,25,100,150,494,158,1,3,A,G,T,X,A,0,0,12005.0.6.0,win,12217,0:24:57,10,10,axcpt,22,ISI_probe,0,175,25,25,25,100,150,495,158,1,3,A,G,T,X,0,0,0,05.0.6.0,win,12217,0:24:57,10,10,axcpt,22,trialselector,0,175,25,25,25,100,150,496,158,1,3,A,G,T,X,0,0,0,05.0.6.0,win,12217,0:24:57,10,10,axcpt,22,AX,0,175,25,25,25,100,150,497,159,1,3,A,L,G,X,A,0,0,12005.0.6.0,win,12217,0:24:57,10,10,axcpt,22,ISI_probe,0,175,25,25,25,100,150,498,159,1,3,A,L,G,X,0,0,0,05.0.6.0,win,12217,0:24:57,10,10,axcpt,22,trialselector,0,175,25,25,25,100,150,499,159,1,3,A,L,G,X,0,0,0,05.0.6.0,win,12217,0:24:57,10,10,axcpt,22,AX,0,175,25,25,25,100,150,500,160,1,3,A,P,B,X,A,0,0,12005.0.6.0,win,12217,0:24:57,10,10,axcpt,22,ISI_probe,0,175,25,25,25,100,150,501,160,1,3,A,P,B,X,0,0,0,05.0.6.0,win,12217,0:24:57,10,10,axcpt,22,trialselector,0,175,25,25,25,100,150,502,160,1,3,A,P,B,X,0,0,0,05.0.6.0,win,12217,0:24:57,10,10,axcpt,22,AX,0,175,25,25,25,100,150,503,161,1,3,A,L,F,X,A,0,0,12005.0.6.0,win,12217,0:24:57,10,10,axcpt,22,ISI_probe,0,175,25,25,25,100,150,504,161,1,3,A,L,F,X,0,0,0,05.0.6.0,win,12217,0:24:57,10,10,axcpt,22,trialselector,0,175,25,25,25,100,150,505,161,1,3,A,L,F,X,0,0,0,05.0.6.0,win,12217,0:24:57,10,10,axcpt,22,AX,0,175,25,25,25,100,150,506,162,1,3,A,V,B,X,A,0,0,12005.0.6.0,win,12217,0:24:57,10,10,axcpt,22,ISI_probe,0,175,25,25,25,100,150,507,162,1,3,A,V,B,X,0,0,0,05.0.6.0,win,12217,0:24:57,10,10,axcpt,22,trialselector,0,175,25,25,25,100,150,508,162,1,3,A,V,B,X,0,0,0,05.0.6.0,win,12217,0:24:57,10,10,axcpt,22,AX,0,175,25,25,25,100,150,509,163,1,3,A,C,O,X,A,0,0,12005.0.6.0,win,12217,0:24:57,10,10,axcpt,22,ISI_probe,0,175,25,25,25,100,150,510,163,1,3,A,C,O,X,0,0,0,05.0.6.0,win,12217,0:24:57,10,10,axcpt,22,trialselector,0,175,25,25,25,100,150,511,163,1,3,A,C,O,X,0,0,0,05.0.6.0,win,12217,0:24:57,10,10,axcpt,22,AX,0,175,25,25,25,100,150,512,164,1,3,A,T,R,X,A,0,0,12005.0.6.0,win,12217,0:24:57,10,10,axcpt,22,ISI_probe,0,175,25,25,25,100,150,513,164,1,3,A,T,R,X,0,0,0,05.0.6.0,win,12217,0:24:57,10,10,axcpt,22,trialselector,0,175,25,25,25,100,150,514,164,1,3,A,T,R,X,0,0,0,05.0.6.0,win,12217,0:24:57,10,10,axcpt,22,AX,0,175,25,25,25,100,150,515,165,1,3,A,L,Z,X,A,0,0,12005.0.6.0,win,12217,0:24:57,10,10,axcpt,22,ISI_probe,0,175,25,25,25,100,150,516,165,1,3,A,L,Z,X,0,0,0,05.0.6.0,win,12217,0:24:57,10,10,axcpt,22,trialselector,0,175,25,25,25,100,150,517,165,1,3,A,L,Z,X,0,0,0,05.0.6.0,win,12217,0:24:57,10,10,axcpt,22,AX,0,175,25,25,25,100,150,518,166,1,3,A,G,H,X,A,0,0,12005.0.6.0,win,12217,0:24:57,10,10,axcpt,22,ISI_probe,0,175,25,25,25,100,150,519,166,1,3,A,G,H,X,0,0,0,05.0.6.0,win,12217,0:24:57,10,10,axcpt,22,trialselector,0,175,25,25,25,100,150,520,166,1,3,A,G,H,X,0,0,0,05.0.6.0,win,12217,0:24:57,10,10,axcpt,22,AX,0,175,25,25,25,100,150,521,167,1,3,A,B,N,X,A,0,0,12005.0.6.0,win,12217,0:24:57,10,10,axcpt,22,ISI_probe,0,175,25,25,25,100,150,522,167,1,3,A,B,N,X,0,0,0,05.0.6.0,win,12217,0:24:57,10,10,axcpt,22,trialselector,0,175,25,25,25,100,150,523,167,1,3,A,B,N,X,0,0,0,05.0.6.0,win,12217,0:24:57,10,10,axcpt,22,AX,0,175,25,25,25,100,150,524,168,1,3,A,Z,S,X,A,0,0,12005.0.6.0,win,12217,0:24:57,10,10,axcpt,22,ISI_probe,0,175,25,25,25,100,150,525,168,1,3,A,Z,S,X,0,0,0,05.0.6.0,win,12217,0:24:57,10,10,axcpt,22,trialselector,0,175,25,25,25,100,150,526,168,1,3,A,Z,S,X,0,0,0,05.0.6.0,win,12217,0:24:57,10,10,axcpt,22,AX,0,175,25,25,25,100,150,527,169,1,3,A,H,M,X,A,0,0,12005.0.6.0,win,12217,0:24:57,10,10,axcpt,22,ISI_probe,0,175,25,25,25,100,150,528,169,1,3,A,H,M,X,0,0,0,05.0.6.0,win,12217,0:24:57,10,10,axcpt,22,trialselector,0,175,25,25,25,100,150,529,169,1,3,A,H,M,X,0,0,0,05.0.6.0,win,12217,0:24:57,10,10,axcpt,22,AX,0,175,25,25,25,100,150,530,170,1,3,A,M,Z,X,A,0,0,12005.0.6.0,win,12217,0:24:57,10,10,axcpt,22,ISI_probe,0,175,25,25,25,100,150,531,170,1,3,A,M,Z,X,0,0,0,05.0.6.0,win,12217,0:24:57,10,10,axcpt,22,trialselector,0,175,25,25,25,100,150,532,170,1,3,A,M,Z,X,0,0,0,05.0.6.0,win,12217,0:24:57,10,10,axcpt,22,AX,0,175,25,25,25,100,150,533,171,1,3,A,E,I,X,A,0,0,12005.0.6.0,win,12217,0:24:57,10,10,axcpt,22,ISI_probe,0,175,25,25,25,100,150,534,171,1,3,A,E,I,X,0,0,0,05.0.6.0,win,12217,0:24:57,10,10,axcpt,22,trialselector,0,175,25,25,25,100,150,535,171,1,3,A,E,I,X,0,0,0,05.0.6.0,win,12217,0:24:57,10,10,axcpt,22,AX,0,175,25,25,25,100,150,536,172,1,3,A,M,P,X,A,0,0,12005.0.6.0,win,12217,0:24:57,10,10,axcpt,22,ISI_probe,0,175,25,25,25,100,150,537,172,1,3,A,M,P,X,0,0,0,05.0.6.0,win,12217,0:24:57,10,10,axcpt,22,trialselector,0,175,25,25,25,100,150,538,172,1,3,A,M,P,X,0,0,0,05.0.6.0,win,12217,0:24:57,10,10,axcpt,22,AX,0,175,25,25,25,100,150,539,173,1,3,A,U,Q,X,A,0,0,12005.0.6.0,win,12217,0:24:57,10,10,axcpt,22,ISI_probe,0,175,25,25,25,100,150,540,173,1,3,A,U,Q,X,0,0,0,05.0.6.0,win,12217,0:24:57,10,10,axcpt,22,trialselector,0,175,25,25,25,100,150,541,173,1,3,A,U,Q,X,0,0,0,05.0.6.0,win,12217,0:24:57,10,10,axcpt,22,AX,0,175,25,25,25,100,150,542,174,1,3,A,Q,H,X,A,0,0,12005.0.6.0,win,12217,0:24:57,10,10,axcpt,22,ISI_probe,0,175,25,25,25,100,150,543,174,1,3,A,Q,H,X,0,0,0,05.0.6.0,win,12217,0:24:57,10,10,axcpt,22,trialselector,0,175,25,25,25,100,150,544,174,1,3,A,Q,H,X,0,0,0,05.0.6.0,win,12217,0:24:57,10,10,axcpt,22,AX,0,175,25,25,25,100,150,545,175,1,3,A,N,F,X,A,0,0,12005.0.6.0,win,12217,0:24:57,10,10,axcpt,22,ISI_probe,0,175,25,25,25,100,150,546,175,1,3,A,N,F,X,0,0,0,05.0.6.0,win,12217,0:24:57,10,10,axcpt,22,trialselector,0,175,25,25,25,100,150,547,175,1,3,A,N,F,X,0,0,0,05.0.6.0,win,12217,0:24:57,10,10,axcpt,22,AX,0,175,25,25,25,100,150,548,176,1,3,A,V,B,X,A,0,0,12005.0.6.0,win,12217,0:24:57,10,10,axcpt,22,ISI_probe,0,175,25,25,25,100,150,549,176,1,3,A,V,B,X,0,0,0,05.0.6.0,win,12217,0:24:57,10,10,axcpt,22,trialselector,0,175,25,25,25,100,150,550,176,1,3,A,V,B,X,0,0,0,05.0.6.0,win,12217,0:24:57,10,10,axcpt,22,AX,0,175,25,25,25,100,150,551,177,1,3,A,Z,E,X,A,0,0,12005.0.6.0,win,12217,0:24:57,10,10,axcpt,22,ISI_probe,0,175,25,25,25,100,150,552,177,1,3,A,Z,E,X,0,0,0,05.0.6.0,win,12217,0:24:57,10,10,axcpt,22,trialselector,0,175,25,25,25,100,150,553,177,1,3,A,Z,E,X,0,0,0,05.0.6.0,win,12217,0:24:57,10,10,axcpt,22,AX,0,175,25,25,25,100,150,554,178,1,3,A,D,F,X,A,0,0,12005.0.6.0,win,12217,0:24:57,10,10,axcpt,22,ISI_probe,0,175,25,25,25,100,150,555,178,1,3,A,D,F,X,0,0,0,05.0.6.0,win,12217,0:24:57,10,10,axcpt,22,trialselector,0,175,25,25,25,100,150,556,178,1,3,A,D,F,X,0,0,0,05.0.6.0,win,12217,0:24:57,10,10,axcpt,22,AX,0,175,25,25,25,100,150,557,179,1,3,A,M,T,X,A,0,0,12005.0.6.0,win,12217,0:24:57,10,10,axcpt,22,ISI_probe,0,175,25,25,25,100,150,558,179,1,3,A,M,T,X,0,0,0,05.0.6.0,win,12217,0:24:57,10,10,axcpt,22,trialselector,0,175,25,25,25,100,150,559,179,1,3,A,M,T,X,0,0,0,05.0.6.0,win,12217,0:24:57,10,10,axcpt,22,AX,0,175,25,25,25,100,150,560,180,1,3,A,P,D,X,A,0,0,12005.0.6.0,win,12217,0:24:57,10,10,axcpt,22,ISI_probe,0,175,25,25,25,100,150,561,180,1,3,A,P,D,X,0,0,0,05.0.6.0,win,12217,0:24:57,10,10,axcpt,22,trialselector,0,175,25,25,25,100,150,562,180,3,3,A,P,D,X,0,0,0,05.0.6.0,win,12217,0:24:57,10,10,axcpt,22,BX,0,175,25,25,25,100,150,563,181,3,3,C,U,V,X,C,0,0,12005.0.6.0,win,12217,0:24:57,10,10,axcpt,22,ISI_probe,0,175,25,25,25,100,150,564,181,3,3,C,U,V,X,0,0,0,05.0.6.0,win,12217,0:24:57,10,10,axcpt,22,trialselector,0,175,25,25,25,100,150,565,181,1,3,C,U,V,X,0,0,0,05.0.6.0,win,12217,0:24:57,10,10,axcpt,22,AX,0,175,25,25,25,100,150,566,182,1,3,A,F,G,X,A,0,0,12005.0.6.0,win,12217,0:24:57,10,10,axcpt,22,ISI_probe,0,175,25,25,25,100,150,567,182,1,3,A,F,G,X,0,0,0,05.0.6.0,win,12217,0:24:57,10,10,axcpt,22,trialselector,0,175,25,25,25,100,150,568,182,1,3,A,F,G,X,0,0,0,05.0.6.0,win,12217,0:24:57,10,10,axcpt,22,AX,0,175,25,25,25,100,150,569,183,1,3,A,I,V,X,A,0,0,12005.0.6.0,win,12217,0:24:57,10,10,axcpt,22,ISI_probe,0,175,25,25,25,100,150,570,183,1,3,A,I,V,X,0,0,0,05.0.6.0,win,12217,0:24:57,10,10,axcpt,22,trialselector,0,175,25,25,25,100,150,571,183,3,3,A,I,V,X,0,0,0,05.0.6.0,win,12217,0:24:57,10,10,axcpt,22,BX,0,175,25,25,25,100,150,572,184,3,3,G,V,R,X,G,0,0,12005.0.6.0,win,12217,0:24:57,10,10,axcpt,22,ISI_probe,0,175,25,25,25,100,150,573,184,3,3,G,V,R,X,0,0,0,05.0.6.0,win,12217,0:24:57,10,10,axcpt,22,trialselector,0,175,25,25,25,100,150,574,184,1,3,G,V,R,X,0,0,0,05.0.6.0,win,12217,0:24:57,10,10,axcpt,22,AX,0,175,25,25,25,100,150,575,185,1,3,A,U,M,X,A,0,0,12005.0.6.0,win,12217,0:24:57,10,10,axcpt,22,ISI_probe,0,175,25,25,25,100,150,576,185,1,3,A,U,M,X,0,0,0,05.0.6.0,win,12217,0:24:57,10,10,axcpt,22,trialselector,0,175,25,25,25,100,150,577,185,1,3,A,U,M,X,0,0,0,05.0.6.0,win,12217,0:24:57,10,10,axcpt,22,AX,0,175,25,25,25,100,150,578,186,1,3,A,Z,I,X,A,0,0,12005.0.6.0,win,12217,0:24:57,10,10,axcpt,22,ISI_probe,0,175,25,25,25,100,150,579,186,1,3,A,Z,I,X,0,0,0,05.0.6.0,win,12217,0:24:57,10,10,axcpt,22,trialselector,0,175,25,25,25,100,150,580,186,1,3,A,Z,I,X,0,0,0,05.0.6.0,win,12217,0:24:57,10,10,axcpt,22,AX,0,175,25,25,25,100,150,581,187,1,3,A,P,H,X,A,0,0,12005.0.6.0,win,12217,0:24:57,10,10,axcpt,22,ISI_probe,0,175,25,25,25,100,150,582,187,1,3,A,P,H,X,0,0,0,05.0.6.0,win,12217,0:24:57,10,10,axcpt,22,trialselector,0,175,25,25,25,100,150,583,187,4,3,A,P,H,X,0,0,0,05.0.6.0,win,12217,0:24:57,10,10,axcpt,22,BY,0,175,25,25,25,100,150,584,188,4,3,T,V,R,J,T,0,0,12005.0.6.0,win,12217,0:24:57,10,10,axcpt,22,ISI_probe,0,175,25,25,25,100,150,585,188,4,3,T,V,R,J,0,0,0,05.0.6.0,win,12217,0:24:57,10,10,axcpt,22,trialselector,0,175,25,25,25,100,150,586,188,2,3,T,V,R,J,0,0,0,05.0.6.0,win,12217,0:24:57,10,10,axcpt,22,AY,0,175,25,25,25,100,150,587,189,2,3,A,D,V,U,A,0,0,12005.0.6.0,win,12217,0:24:57,10,10,axcpt,22,ISI_probe,0,175,25,25,25,100,150,588,189,2,3,A,D,V,U,0,0,0,05.0.6.0,win,12217,0:24:57,10,10,axcpt,22,trialselector,0,175,25,25,25,100,150,589,189,2,3,A,D,V,U,0,0,0,05.0.6.0,win,12217,0:24:57,10,10,axcpt,22,AY,0,175,25,25,25,100,150,590,190,2,3,A,Q,P,Z,A,0,0,12005.0.6.0,win,12217,0:24:57,10,10,axcpt,22,ISI_probe,0,175,25,25,25,100,150,591,190,2,3,A,Q,P,Z,0,0,0,05.0.6.0,win,12217,0:24:57,10,10,axcpt,22,trialselector,0,175,25,25,25,100,150,592,190,1,3,A,Q,P,Z,0,0,0,05.0.6.0,win,12217,0:24:57,10,10,axcpt,22,AX,0,175,25,25,25,100,150,593,191,1,3,A,S,E,X,A,0,0,12005.0.6.0,win,12217,0:24:57,10,10,axcpt,22,ISI_probe,0,175,25,25,25,100,150,594,191,1,3,A,S,E,X,0,0,0,05.0.6.0,win,12217,0:24:57,10,10,axcpt,22,trialselector,0,175,25,25,25,100,150,595,191,3,3,A,S,E,X,0,0,0,05.0.6.0,win,12217,0:24:57,10,10,axcpt,22,BX,0,175,25,25,25,100,150,596,192,3,3,O,F,S,X,O,0,0,12005.0.6.0,win,12217,0:24:57,10,10,axcpt,22,ISI_probe,0,175,25,25,25,100,150,597,192,3,3,O,F,S,X,0,0,0,05.0.6.0,win,12217,0:24:57,10,10,axcpt,22,trialselector,0,175,25,25,25,100,150,598,192,1,3,O,F,S,X,0,0,0,05.0.6.0,win,12217,0:24:57,10,10,axcpt,22,AX,0,175,25,25,25,100,150,599,193,1,3,A,R,V,X,A,0,0,12005.0.6.0,win,12217,0:24:57,10,10,axcpt,22,ISI_probe,0,175,25,25,25,100,150,600,193,1,3,A,R,V,X,0,0,0,05.0.6.0,win,12217,0:24:57,10,10,axcpt,22,trialselector,0,175,25,25,25,100,150,601,193,2,3,A,R,V,X,0,0,0,05.0.6.0,win,12217,0:24:57,10,10,axcpt,22,AY,0,175,25,25,25,100,150,602,194,2,3,A,G,T,P,A,0,0,12005.0.6.0,win,12217,0:24:57,10,10,axcpt,22,ISI_probe,0,175,25,25,25,100,150,603,194,2,3,A,G,T,P,0,0,0,05.0.6.0,win,12217,0:24:57,10,10,axcpt,22,trialselector,0,175,25,25,25,100,150,604,194,1,3,A,G,T,P,0,0,0,05.0.6.0,win,12217,0:24:57,10,10,axcpt,22,AX,0,175,25,25,25,100,150,605,195,1,3,A,P,N,X,A,0,0,12005.0.6.0,win,12217,0:24:57,10,10,axcpt,22,ISI_probe,0,175,25,25,25,100,150,606,195,1,3,A,P,N,X,0,0,0,05.0.6.0,win,12217,0:24:57,10,10,axcpt,22,trialselector,0,175,25,25,25,100,150,607,195,4,3,A,P,N,X,0,0,0,05.0.6.0,win,12217,0:24:57,10,10,axcpt,22,BY,0,175,25,25,25,100,150,608,196,4,3,J,B,S,E,J,0,0,12005.0.6.0,win,12217,0:24:57,10,10,axcpt,22,ISI_probe,0,175,25,25,25,100,150,609,196,4,3,J,B,S,E,0,0,0,05.0.6.0,win,12217,0:24:57,10,10,axcpt,22,trialselector,0,175,25,25,25,100,150,610,196,3,3,J,B,S,E,0,0,0,05.0.6.0,win,12217,0:24:57,10,10,axcpt,22,BX,0,175,25,25,25,100,150,611,197,3,3,O,P,D,X,O,0,0,12005.0.6.0,win,12217,0:24:57,10,10,axcpt,22,ISI_probe,0,175,25,25,25,100,150,612,197,3,3,O,P,D,X,0,0,0,05.0.6.0,win,12217,0:24:57,10,10,axcpt,22,trialselector,0,175,25,25,25,100,150,613,197,1,3,O,P,D,X,0,0,0,05.0.6.0,win,12217,0:24:57,10,10,axcpt,22,AX,0,175,25,25,25,100,150,614,198,1,3,A,R,E,X,A,0,0,12005.0.6.0,win,12217,0:24:57,10,10,axcpt,22,ISI_probe,0,175,25,25,25,100,150,615,198,1,3,A,R,E,X,0,0,0,05.0.6.0,win,12217,0:24:57,10,10,axcpt,22,trialselector,0,175,25,25,25,100,150,616,198,1,3,A,R,E,X,0,0,0,05.0.6.0,win,12217,0:24:57,10,10,axcpt,22,AX,0,175,25,25,25,100,150,617,199,1,3,A,V,G,X,A,0,0,12005.0.6.0,win,12217,0:24:57,10,10,axcpt,22,ISI_probe,0,175,25,25,25,100,150,618,199,1,3,A,V,G,X,0,0,0,05.0.6.0,win,12217,0:24:57,10,10,axcpt,22,trialselector,0,175,25,25,25,100,150,619,199,2,3,A,V,G,X,0,0,0,05.0.6.0,win,12217,0:24:57,10,10,axcpt,22,AY,0,175,25,25,25,100,150,620,200,2,3,A,U,E,M,A,0,0,12005.0.6.0,win,12217,0:24:57,10,10,axcpt,22,ISI_probe,0,175,25,25,25,100,150,621,200,2,3,A,U,E,M,0,0,0,05.0.6.0,win,12217,0:24:57,10,10,axcpt,22,trialselector,0,175,25,25,25,100,150,622,200,1,3,A,U,E,M,0,0,0,05.0.6.0,win,12217,0:24:57,10,10,axcpt,22,AX,0,175,25,25,25,100,150,623,201,1,3,A,T,Z,X,A,0,0,12005.0.6.0,win,12217,0:24:57,10,10,axcpt,22,ISI_probe,0,175,25,25,25,100,150,624,201,1,3,A,T,Z,X,0,0,0,05.0.6.0,win,12217,0:24:57,10,10,axcpt,22,trialselector,0,175,25,25,25,100,150,625,201,2,3,A,T,Z,X,0,0,0,05.0.6.0,win,12217,0:24:57,10,10,axcpt,22,AY,0,175,25,25,25,100,150,626,202,2,3,A,F,U,T,A,0,0,12005.0.6.0,win,12217,0:24:57,10,10,axcpt,22,ISI_probe,0,175,25,25,25,100,150,627,202,2,3,A,F,U,T,0,0,0,05.0.6.0,win,12217,0:24:57,10,10,axcpt,22,trialselector,0,175,25,25,25,100,150,628,202,4,3,A,F,U,T,0,0,0,05.0.6.0,win,12217,0:24:57,10,10,axcpt,22,BY,0,175,25,25,25,100,150,629,203,4,3,B,J,P,D,B,0,0,12005.0.6.0,win,12217,0:24:57,10,10,axcpt,22,ISI_probe,0,175,25,25,25,100,150,630,203,4,3,B,J,P,D,0,0,0,05.0.6.0,win,12217,0:24:57,10,10,axcpt,22,trialselector,0,175,25,25,25,100,150,631,203,1,3,B,J,P,D,0,0,0,05.0.6.0,win,12217,0:24:57,10,10,axcpt,22,AX,0,175,25,25,25,100,150,632,204,1,3,A,L,F,X,A,0,0,12005.0.6.0,win,12217,0:24:57,10,10,axcpt,22,ISI_probe,0,175,25,25,25,100,150,633,204,1,3,A,L,F,X,0,0,0,05.0.6.0,win,12217,0:24:57,10,10,axcpt,22,trialselector,0,175,25,25,25,100,150,634,204,3,3,A,L,F,X,0,0,0,05.0.6.0,win,12217,0:24:57,10,10,axcpt,22,BX,0,175,25,25,25,100,150,635,205,3,3,U,Z,B,X,U,0,0,12005.0.6.0,win,12217,0:24:57,10,10,axcpt,22,ISI_probe,0,175,25,25,25,100,150,636,205,3,3,U,Z,B,X,0,0,0,05.0.6.0,win,12217,0:24:57,10,10,axcpt,22,trialselector,0,175,25,25,25,100,150,637,205,1,3,U,Z,B,X,0,0,0,05.0.6.0,win,12217,0:24:57,10,10,axcpt,22,AX,0,175,25,25,25,100,150,638,206,1,3,A,P,T,X,A,0,0,12005.0.6.0,win,12217,0:24:57,10,10,axcpt,22,ISI_probe,0,175,25,25,25,100,150,639,206,1,3,A,P,T,X,0,0,0,05.0.6.0,win,12217,0:24:57,10,10,axcpt,22,trialselector,0,175,25,25,25,100,150,640,206,2,3,A,P,T,X,0,0,0,05.0.6.0,win,12217,0:24:57,10,10,axcpt,22,AY,0,175,25,25,25,100,150,641,207,2,3,A,I,Z,R,A,0,0,12005.0.6.0,win,12217,0:24:57,10,10,axcpt,22,ISI_probe,0,175,25,25,25,100,150,642,207,2,3,A,I,Z,R,0,0,0,05.0.6.0,win,12217,0:24:57,10,10,axcpt,22,trialselector,0,175,25,25,25,100,150,643,207,1,3,A,I,Z,R,0,0,0,05.0.6.0,win,12217,0:24:57,10,10,axcpt,22,AX,0,175,25,25,25,100,150,644,208,1,3,A,V,S,X,A,0,0,12005.0.6.0,win,12217,0:24:57,10,10,axcpt,22,ISI_probe,0,175,25,25,25,100,150,645,208,1,3,A,V,S,X,0,0,0,05.0.6.0,win,12217,0:24:57,10,10,axcpt,22,trialselector,0,175,25,25,25,100,150,646,208,2,3,A,V,S,X,0,0,0,05.0.6.0,win,12217,0:24:57,10,10,axcpt,22,AY,0,175,25,25,25,100,150,647,209,2,3,A,F,I,V,A,0,0,12005.0.6.0,win,12217,0:24:57,10,10,axcpt,22,ISI_probe,0,175,25,25,25,100,150,648,209,2,3,A,F,I,V,0,0,0,05.0.6.0,win,12217,0:24:57,10,10,axcpt,22,trialselector,0,175,25,25,25,100,150,649,209,1,3,A,F,I,V,0,0,0,05.0.6.0,win,12217,0:24:57,10,10,axcpt,22,AX,0,175,25,25,25,100,150,650,210,1,3,A,P,D,X,A,0,0,12005.0.6.0,win,12217,0:24:57,10,10,axcpt,22,ISI_probe,0,175,25,25,25,100,150,651,210,1,3,A,P,D,X,0,0,0,05.0.6.0,win,12217,0:24:57,10,10,axcpt,22,trialselector,0,175,25,25,25,100,150,652,210,3,3,A,P,D,X,0,0,0,05.0.6.0,win,12217,0:24:57,10,10,axcpt,22,BX,0,175,25,25,25,100,150,653,211,3,3,L,M,J,X,L,0,0,12005.0.6.0,win,12217,0:24:57,10,10,axcpt,22,ISI_probe,0,175,25,25,25,100,150,654,211,3,3,L,M,J,X,0,0,0,05.0.6.0,win,12217,0:24:57,10,10,axcpt,22,trialselector,0,175,25,25,25,100,150,655,211,1,3,L,M,J,X,0,0,0,05.0.6.0,win,12217,0:24:57,10,10,axcpt,22,AX,0,175,25,25,25,100,150,656,212,1,3,A,S,I,X,A,0,0,12005.0.6.0,win,12217,0:24:57,10,10,axcpt,22,ISI_probe,0,175,25,25,25,100,150,657,212,1,3,A,S,I,X,0,0,0,05.0.6.0,win,12217,0:24:57,10,10,axcpt,22,trialselector,0,175,25,25,25,100,150,658,212,1,3,A,S,I,X,0,0,0,05.0.6.0,win,12217,0:24:57,10,10,axcpt,22,AX,0,175,25,25,25,100,150,659,213,1,3,A,D,N,X,A,0,0,12005.0.6.0,win,12217,0:24:57,10,10,axcpt,22,ISI_probe,0,175,25,25,25,100,150,660,213,1,3,A,D,N,X,0,0,0,05.0.6.0,win,12217,0:24:57,10,10,axcpt,22,trialselector,0,175,25,25,25,100,150,661,213,1,3,A,D,N,X,0,0,0,05.0.6.0,win,12217,0:24:57,10,10,axcpt,22,AX,0,175,25,25,25,100,150,662,214,1,3,A,U,P,X,A,0,0,12005.0.6.0,win,12217,0:24:57,10,10,axcpt,22,ISI_probe,0,175,25,25,25,100,150,663,214,1,3,A,U,P,X,0,0,0,05.0.6.0,win,12217,0:24:57,10,10,axcpt,22,trialselector,0,175,25,25,25,100,150,664,214,1,3,A,U,P,X,0,0,0,05.0.6.0,win,12217,0:24:57,10,10,axcpt,22,AX,0,175,25,25,25,100,150,665,215,1,3,A,O,B,X,A,0,0,12005.0.6.0,win,12217,0:24:57,10,10,axcpt,22,ISI_probe,0,175,25,25,25,100,150,666,215,1,3,A,O,B,X,0,0,0,05.0.6.0,win,12217,0:24:57,10,10,axcpt,22,trialselector,0,175,25,25,25,100,150,667,215,1,3,A,O,B,X,0,0,0,05.0.6.0,win,12217,0:24:57,10,10,axcpt,22,AX,0,175,25,25,25,100,150,668,216,1,3,A,V,O,X,A,0,0,12005.0.6.0,win,12217,0:24:57,10,10,axcpt,22,ISI_probe,0,175,25,25,25,100,150,669,216,1,3,A,V,O,X,0,0,0,05.0.6.0,win,12217,0:24:57,10,10,axcpt,22,trialselector,0,175,25,25,25,100,150,670,216,2,3,A,V,O,X,0,0,0,05.0.6.0,win,12217,0:24:57,10,10,axcpt,22,AY,0,175,25,25,25,100,150,671,217,2,3,A,I,Z,P,A,0,0,12005.0.6.0,win,12217,0:24:57,10,10,axcpt,22,ISI_probe,0,175,25,25,25,100,150,672,217,2,3,A,I,Z,P,0,0,0,05.0.6.0,win,12217,0:24:57,10,10,axcpt,22,trialselector,0,175,25,25,25,100,150,673,217,1,3,A,I,Z,P,0,0,0,05.0.6.0,win,12217,0:24:57,10,10,axcpt,22,AX,0,175,25,25,25,100,150,674,218,1,3,A,G,M,X,A,0,0,12005.0.6.0,win,12217,0:24:57,10,10,axcpt,22,ISI_probe,0,175,25,25,25,100,150,675,218,1,3,A,G,M,X,0,0,0,05.0.6.0,win,12217,0:24:57,10,10,axcpt,22,trialselector,0,175,25,25,25,100,150,676,218,1,3,A,G,M,X,0,0,0,05.0.6.0,win,12217,0:24:57,10,10,axcpt,22,AX,0,175,25,25,25,100,150,677,219,1,3,A,Z,N,X,A,0,0,12005.0.6.0,win,12217,0:24:57,10,10,axcpt,22,ISI_probe,0,175,25,25,25,100,150,678,219,1,3,A,Z,N,X,0,0,0,05.0.6.0,win,12217,0:24:57,10,10,axcpt,22,trialselector,0,175,25,25,25,100,150,679,219,1,3,A,Z,N,X,0,0,0,05.0.6.0,win,12217,0:24:57,10,10,axcpt,22,AX,0,175,25,25,25,100,150,680,220,1,3,A,R,D,X,A,0,0,12005.0.6.0,win,12217,0:24:57,10,10,axcpt,22,ISI_probe,0,175,25,25,25,100,150,681,220,1,3,A,R,D,X,0,0,0,05.0.6.0,win,12217,0:24:57,10,10,axcpt,22,trialselector,0,175,25,25,25,100,150,682,220,4,3,A,R,D,X,0,0,0,05.0.6.0,win,12217,0:24:57,10,10,axcpt,22,BY,0,175,25,25,25,100,150,683,221,4,3,D,J,N,V,D,0,0,12005.0.6.0,win,12217,0:24:57,10,10,axcpt,22,ISI_probe,0,175,25,25,25,100,150,684,221,4,3,D,J,N,V,0,0,0,05.0.6.0,win,12217,0:24:57,10,10,axcpt,22,trialselector,0,175,25,25,25,100,150,685,221,3,3,D,J,N,V,0,0,0,05.0.6.0,win,12217,0:24:57,10,10,axcpt,22,BX,0,175,25,25,25,100,150,686,222,3,3,E,H,L,X,E,0,0,12005.0.6.0,win,12217,0:24:57,10,10,axcpt,22,ISI_probe,0,175,25,25,25,100,150,687,222,3,3,E,H,L,X,0,0,0,05.0.6.0,win,12217,0:24:57,10,10,axcpt,22,trialselector,0,175,25,25,25,100,150,688,222,2,3,E,H,L,X,0,0,0,05.0.6.0,win,12217,0:24:57,10,10,axcpt,22,AY,0,175,25,25,25,100,150,689,223,2,3,A,J,O,Z,A,0,0,12005.0.6.0,win,12217,0:24:57,10,10,axcpt,22,ISI_probe,0,175,25,25,25,100,150,690,223,2,3,A,J,O,Z,0,0,0,05.0.6.0,win,12217,0:24:57,10,10,axcpt,22,trialselector,0,175,25,25,25,100,150,691,223,4,3,A,J,O,Z,0,0,0,05.0.6.0,win,12217,0:24:57,10,10,axcpt,22,BY,0,175,25,25,25,100,150,692,224,4,3,E,R,B,O,E,0,0,12005.0.6.0,win,12217,0:24:57,10,10,axcpt,22,ISI_probe,0,175,25,25,25,100,150,693,224,4,3,E,R,B,O,0,0,0,05.0.6.0,win,12217,0:24:57,10,10,axcpt,22,trialselector,0,175,25,25,25,100,150,694,224,1,3,E,R,B,O,0,0,0,05.0.6.0,win,12217,0:24:57,10,10,axcpt,22,AX,0,175,25,25,25,100,150,695,225,1,3,A,O,J,X,A,0,0,12005.0.6.0,win,12217,0:24:57,10,10,axcpt,22,ISI_probe,0,175,25,25,25,100,150,696,225,1,3,A,O,J,X,0,0,0,05.0.6.0,win,12217,0:24:57,10,10,axcpt,22,trialselector,0,175,25,25,25,100,150,697,225,3,3,A,O,J,X,0,0,0,05.0.6.0,win,12217,0:24:57,10,10,axcpt,22,BX,0,175,25,25,25,100,150,698,226,3,3,Q,T,Z,X,Q,0,0,12005.0.6.0,win,12217,0:24:57,10,10,axcpt,22,ISI_probe,0,175,25,25,25,100,150,699,226,3,3,Q,T,Z,X,0,0,0,05.0.6.0,win,12217,0:24:57,10,10,axcpt,22,trialselector,0,175,25,25,25,100,150,700,226,1,3,Q,T,Z,X,0,0,0,05.0.6.0,win,12217,0:24:57,10,10,axcpt,22,AX,0,175,25,25,25,100,150,701,227,1,3,A,V,E,X,A,0,0,12005.0.6.0,win,12217,0:24:57,10,10,axcpt,22,ISI_probe,0,175,25,25,25,100,150,702,227,1,3,A,V,E,X,0,0,0,05.0.6.0,win,12217,0:24:57,10,10,axcpt,22,trialselector,0,175,25,25,25,100,150,703,227,1,3,A,V,E,X,0,0,0,05.0.6.0,win,12217,0:24:57,10,10,axcpt,22,AX,0,175,25,25,25,100,150,704,228,1,3,A,D,L,X,A,0,0,12005.0.6.0,win,12217,0:24:57,10,10,axcpt,22,ISI_probe,0,175,25,25,25,100,150,705,228,1,3,A,D,L,X,0,0,0,05.0.6.0,win,12217,0:24:57,10,10,axcpt,22,trialselector,0,175,25,25,25,100,150,706,228,3,3,A,D,L,X,0,0,0,05.0.6.0,win,12217,0:24:57,10,10,axcpt,22,BX,0,175,25,25,25,100,150,707,229,3,3,U,B,F,X,U,0,0,12005.0.6.0,win,12217,0:24:57,10,10,axcpt,22,ISI_probe,0,175,25,25,25,100,150,708,229,3,3,U,B,F,X,0,0,0,05.0.6.0,win,12217,0:24:57,10,10,axcpt,22,trialselector,0,175,25,25,25,100,150,709,229,1,3,U,B,F,X,0,0,0,05.0.6.0,win,12217,0:24:57,10,10,axcpt,22,AX,0,175,25,25,25,100,150,710,230,1,3,A,G,R,X,A,0,0,12005.0.6.0,win,12217,0:24:57,10,10,axcpt,22,ISI_probe,0,175,25,25,25,100,150,711,230,1,3,A,G,R,X,0,0,0,05.0.6.0,win,12217,0:24:57,10,10,axcpt,22,trialselector,0,175,25,25,25,100,150,712,230,4,3,A,G,R,X,0,0,0,05.0.6.0,win,12217,0:24:57,10,10,axcpt,22,BY,0,175,25,25,25,100,150,713,231,4,3,T,G,O,D,T,0,0,12005.0.6.0,win,12217,0:24:57,10,10,axcpt,22,ISI_probe,0,175,25,25,25,100,150,714,231,4,3,T,G,O,D,0,0,0,05.0.6.0,win,12217,0:24:57,10,10,axcpt,22,trialselector,0,175,25,25,25,100,150,715,231,1,3,T,G,O,D,0,0,0,05.0.6.0,win,12217,0:24:57,10,10,axcpt,22,AX,0,175,25,25,25,100,150,716,232,1,3,A,U,B,X,A,0,0,12005.0.6.0,win,12217,0:24:57,10,10,axcpt,22,ISI_probe,0,175,25,25,25,100,150,717,232,1,3,A,U,B,X,0,0,0,05.0.6.0,win,12217,0:24:57,10,10,axcpt,22,trialselector,0,175,25,25,25,100,150,718,232,1,3,A,U,B,X,0,0,0,05.0.6.0,win,12217,0:24:57,10,10,axcpt,22,AX,0,175,25,25,25,100,150,719,233,1,3,A,P,S,X,A,0,0,12005.0.6.0,win,12217,0:24:57,10,10,axcpt,22,ISI_probe,0,175,25,25,25,100,150,720,233,1,3,A,P,S,X,0,0,0,05.0.6.0,win,12217,0:24:57,10,10,axcpt,22,trialselector,0,175,25,25,25,100,150,721,233,1,3,A,P,S,X,0,0,0,05.0.6.0,win,12217,0:24:57,10,10,axcpt,22,AX,0,175,25,25,25,100,150,722,234,1,3,A,F,R,X,A,0,0,12005.0.6.0,win,12217,0:24:57,10,10,axcpt,22,ISI_probe,0,175,25,25,25,100,150,723,234,1,3,A,F,R,X,0,0,0,05.0.6.0,win,12217,0:24:57,10,10,axcpt,22,trialselector,0,175,25,25,25,100,150,724,234,1,3,A,F,R,X,0,0,0,05.0.6.0,win,12217,0:24:57,10,10,axcpt,22,AX,0,175,25,25,25,100,150,725,235,1,3,A,B,S,X,A,0,0,12005.0.6.0,win,12217,0:24:57,10,10,axcpt,22,ISI_probe,0,175,25,25,25,100,150,726,235,1,3,A,B,S,X,0,0,0,05.0.6.0,win,12217,0:24:57,10,10,axcpt,22,trialselector,0,175,25,25,25,100,150,727,235,4,3,A,B,S,X,0,0,0,05.0.6.0,win,12217,0:24:57,10,10,axcpt,22,BY,0,175,25,25,25,100,150,728,236,4,3,S,L,C,F,S,0,0,12005.0.6.0,win,12217,0:24:57,10,10,axcpt,22,ISI_probe,0,175,25,25,25,100,150,729,236,4,3,S,L,C,F,0,0,0,05.0.6.0,win,12217,0:24:57,10,10,axcpt,22,trialselector,0,175,25,25,25,100,150,730,236,4,3,S,L,C,F,0,0,0,05.0.6.0,win,12217,0:24:57,10,10,axcpt,22,BY,0,175,25,25,25,100,150,731,237,4,3,J,T,N,G,J,0,0,12005.0.6.0,win,12217,0:24:57,10,10,axcpt,22,ISI_probe,0,175,25,25,25,100,150,732,237,4,3,J,T,N,G,0,0,0,05.0.6.0,win,12217,0:24:57,10,10,axcpt,22,trialselector,0,175,25,25,25,100,150,733,237,1,3,J,T,N,G,0,0,0,05.0.6.0,win,12217,0:24:57,10,10,axcpt,22,AX,0,175,25,25,25,100,150,734,238,1,3,A,Q,E,X,A,0,0,12005.0.6.0,win,12217,0:24:57,10,10,axcpt,22,ISI_probe,0,175,25,25,25,100,150,735,238,1,3,A,Q,E,X,0,0,0,05.0.6.0,win,12217,0:24:57,10,10,axcpt,22,trialselector,0,175,25,25,25,100,150,736,238,1,3,A,Q,E,X,0,0,0,05.0.6.0,win,12217,0:24:57,10,10,axcpt,22,AX,0,175,25,25,25,100,150,737,239,1,3,A,E,H,X,A,0,0,12005.0.6.0,win,12217,0:24:57,10,10,axcpt,22,ISI_probe,0,175,25,25,25,100,150,738,239,1,3,A,E,H,X,0,0,0,05.0.6.0,win,12217,0:24:57,10,10,axcpt,22,trialselector,0,175,25,25,25,100,150,739,239,4,3,A,E,H,X,0,0,0,05.0.6.0,win,12217,0:24:57,10,10,axcpt,22,BY,0,175,25,25,25,100,150,740,240,4,3,E,Q,C,B,E,0,0,12005.0.6.0,win,12217,0:24:57,10,10,axcpt,22,ISI_probe,0,175,25,25,25,100,150,741,240,4,3,E,Q,C,B,0,0,0,05.0.6.0,win,12217,0:24:57,10,10,axcpt,22,trialselector,0,175,25,25,25,100,150,742,240,2,3,E,Q,C,B,0,0,0,05.0.6.0,win,12217,0:24:57,10,10,axcpt,22,AY,0,175,25,25,25,100,150,743,241,2,3,A,J,M,U,A,0,0,12005.0.6.0,win,12217,0:24:57,10,10,axcpt,22,ISI_probe,0,175,25,25,25,100,150,744,241,2,3,A,J,M,U,0,0,0,05.0.6.0,win,12217,0:24:57,10,10,axcpt,22,trialselector,0,175,25,25,25,100,150,745,241,1,3,A,J,M,U,0,0,0,05.0.6.0,win,12217,0:24:57,10,10,axcpt,22,AX,0,175,25,25,25,100,150,746,242,1,3,A,C,B,X,A,0,0,12005.0.6.0,win,12217,0:24:57,10,10,axcpt,22,ISI_probe,0,175,25,25,25,100,150,747,242,1,3,A,C,B,X,0,0,0,05.0.6.0,win,12217,0:24:57,10,10,axcpt,22,trialselector,0,175,25,25,25,100,150,748,242,4,3,A,C,B,X,0,0,0,05.0.6.0,win,12217,0:24:57,10,10,axcpt,22,BY,0,175,25,25,25,100,150,749,243,4,3,M,L,T,R,M,0,0,12005.0.6.0,win,12217,0:24:57,10,10,axcpt,22,ISI_probe,0,175,25,25,25,100,150,750,243,4,3,M,L,T,R,0,0,0,05.0.6.0,win,12217,0:24:57,10,10,axcpt,22,trialselector,0,175,25,25,25,100,150,751,243,1,3,M,L,T,R,0,0,0,05.0.6.0,win,12217,0:24:57,10,10,axcpt,22,AX,0,175,25,25,25,100,150,752,244,1,3,A,S,F,X,A,0,0,12005.0.6.0,win,12217,0:24:57,10,10,axcpt,22,ISI_probe,0,175,25,25,25,100,150,753,244,1,3,A,S,F,X,0,0,0,05.0.6.0,win,12217,0:24:57,10,10,axcpt,22,trialselector,0,175,25,25,25,100,150,754,244,1,3,A,S,F,X,0,0,0,05.0.6.0,win,12217,0:24:57,10,10,axcpt,22,AX,0,175,25,25,25,100,150,755,245,1,3,A,T,U,X,A,0,0,12005.0.6.0,win,12217,0:24:57,10,10,axcpt,22,ISI_probe,0,175,25,25,25,100,150,756,245,1,3,A,T,U,X,0,0,0,05.0.6.0,win,12217,0:24:57,10,10,axcpt,22,trialselector,0,175,25,25,25,100,150,757,245,1,3,A,T,U,X,0,0,0,05.0.6.0,win,12217,0:24:57,10,10,axcpt,22,AX,0,175,25,25,25,100,150,758,246,1,3,A,M,B,X,A,0,0,12005.0.6.0,win,12217,0:24:57,10,10,axcpt,22,ISI_probe,0,175,25,25,25,100,150,759,246,1,3,A,M,B,X,0,0,0,05.0.6.0,win,12217,0:24:57,10,10,axcpt,22,trialselector,0,175,25,25,25,100,150,760,246,4,3,A,M,B,X,0,0,0,05.0.6.0,win,12217,0:24:57,10,10,axcpt,22,BY,0,175,25,25,25,100,150,761,247,4,3,B,S,D,O,B,0,0,12005.0.6.0,win,12217,0:24:57,10,10,axcpt,22,ISI_probe,0,175,25,25,25,100,150,762,247,4,3,B,S,D,O,0,0,0,05.0.6.0,win,12217,0:24:57,10,10,axcpt,22,trialselector,0,175,25,25,25,100,150,763,247,4,3,B,S,D,O,0,0,0,05.0.6.0,win,12217,0:24:57,10,10,axcpt,22,BY,0,175,25,25,25,100,150,764,248,4,3,S,E,N,G,S,0,0,12005.0.6.0,win,12217,0:24:57,10,10,axcpt,22,ISI_probe,0,175,25,25,25,100,150,765,248,4,3,S,E,N,G,0,0,0,05.0.6.0,win,12217,0:24:57,10,10,axcpt,22,trialselector,0,175,25,25,25,100,150,766,248,1,3,S,E,N,G,0,0,0,05.0.6.0,win,12217,0:24:57,10,10,axcpt,22,AX,0,175,25,25,25,100,150,767,249,1,3,A,G,Z,X,A,0,0,12005.0.6.0,win,12217,0:24:57,10,10,axcpt,22,ISI_probe,0,175,25,25,25,100,150,768,249,1,3,A,G,Z,X,0,0,0,05.0.6.0,win,12217,0:24:57,10,10,axcpt,22,trialselector,0,175,25,25,25,100,150,769,249,1,3,A,G,Z,X,0,0,0,05.0.6.0,win,12217,0:24:57,10,10,axcpt,22,AX,0,175,25,25,25,100,150,770,250,1,3,A,E,N,X,A,0,0,12005.0.6.0,win,12217,0:24:57,10,10,axcpt,22,ISI_probe,0,175,25,25,25,100,150,771,250,1,3,A,E,N,X,0,0,0,05.0.6.0,win,12217,0:24:57,10,10,rey_trial8_pres_instruct,23,trial7_pres_instruct2,57,175,25,25,25,100,150,1,250,1,3,A,E,N,X,Remember the long list which you practiced learning multiple times?,57,0,64805.0.6.0,win,12217,0:24:57,10,10,rey_trial8_pres_instruct,23,trial7_pres_instruct3,57,175,25,25,25,100,150,2,250,1,3,A,E,N,X,Remember the long list which you practiced learning multiple times?   Please type in as many of those words as you can remember in any order that comes to mind.,57,0,6775.0.6.0,win,12217,0:24:57,10,10,rey_trial8_recall,24,trial7_recall_response1,house,175,25,25,25,100,150,1,250,1,3,A,E,N,X,recallrect2_empty,house,0,44515.0.6.0,win,12217,0:24:57,10,10,rey_trial8_recall,24,trial7_recall_response2,parent,175,25,25,25,100,150,2,250,1,3,A,E,N,X,recallrect1_full,parent,0,24325.0.6.0,win,12217,0:24:57,10,10,rey_trial8_recall,24,trial7_recall_response3,color,175,25,25,25,100,150,3,250,1,3,A,E,N,X,recallrect1_full,color,0,22725.0.6.0,win,12217,0:24:57,10,10,rey_trial8_recall,24,trial7_recall_response4,,175,25,25,25,100,150,4,250,1,3,A,E,N,X,recallrect1_full,,0,374